Subject ID	Condition	Block #	Trial #	Switch Rate	Exemplar	File Name	Rating	RT	Rating History	Trial Duration	Block Duration	Session Duration	Experiment Duration	Start Date	Experiment	Testing Location	Experimenter Initials	Subject Initials
68	beautiful	1	1	0.3	0	../stimuli/combined/switch-0.3_chunk-500_C_G_alternating_00.mp3	35	5.251	[(None, 0.0), (35, 3.782), (35, 5.251)]	16.1232107065	16.1236152965	1560.86732766	30.3857434164	2019_Mar_27_0855	Sound Switch 12-20-2018	318-laptop	bpl	HP
68	beautiful	1	2	0.3	14	../stimuli/combined/switch-0.3_chunk-500_C_G_alternating_14.mp3	17	3.366	[(None, 0.0), (17, 2.021), (17, 3.366)]	14.2854769955	30.4182018896	1575.16191267	44.6803284291	2019_Mar_27_0855	Sound Switch 12-20-2018	318-laptop	bpl	HP
68	beautiful	1	3	0.9	14	../stimuli/combined/switch-0.9_chunk-500_C_G_alternating_14.mp3	15	2.864	[(None, 0.0), (15, 1.862), (15, 2.864)]	13.7881986932	44.210382871	1588.95409404	58.4725098056	2019_Mar_27_0855	Sound Switch 12-20-2018	318-laptop	bpl	HP
68	beautiful	1	4	0.5	2	../stimuli/combined/switch-0.5_chunk-500_C_G_alternating_02.mp3	26	5.931	[(None, 0.0), (26, 4.726), (26, 5.931)]	16.853363372	61.0684164132	1605.81212759	75.3305433478	2019_Mar_27_0855	Sound Switch 12-20-2018	318-laptop	bpl	HP
68	beautiful	1	5	0.8	17	../stimuli/combined/switch-0.8_chunk-500_C_G_alternating_17.mp3	15	3.317	[(None, 0.0), (15, 2.159), (15, 3.317)]	14.2411123539	75.3132368507	1620.05694802	89.5753641804	2019_Mar_27_0855	Sound Switch 12-20-2018	318-laptop	bpl	HP
68	beautiful	1	6	0.2	12	../stimuli/combined/switch-0.2_chunk-500_C_G_alternating_12.mp3	14	2.982	[(None, 0.0), (14, 1.529), (14, 2.982)]	13.9051074356	89.2228113714	1633.96652294	103.484938701	2019_Mar_27_0855	Sound Switch 12-20-2018	318-laptop	bpl	HP
68	beautiful	1	7	0.3	11	../stimuli/combined/switch-0.3_chunk-500_C_G_alternating_11.mp3	12	3.86	[(None, 0.0), (12, 2.983), (12, 3.86)]	14.7861125258	104.013614613	1648.75732579	118.275741152	2019_Mar_27_0855	Sound Switch 12-20-2018	318-laptop	bpl	HP
68	beautiful	1	8	0.1	10	../stimuli/combined/switch-0.1_chunk-500_C_G_alternating_10.mp3	12	3.381	[(None, 0.0), (12, 2.348), (12, 3.381)]	14.3123526002	118.329966096	1663.07367727	132.59209303	2019_Mar_27_0855	Sound Switch 12-20-2018	318-laptop	bpl	HP
68	beautiful	1	9	0.4	17	../stimuli/combined/switch-0.4_chunk-500_C_G_alternating_17.mp3	12	2.848	[(None, 0.0), (12, 1.816), (12, 2.848)]	13.7680094921	132.101908883	1676.84561966	146.364035422	2019_Mar_27_0855	Sound Switch 12-20-2018	318-laptop	bpl	HP
68	beautiful	1	10	0.8	6	../stimuli/combined/switch-0.8_chunk-500_C_G_alternating_06.mp3	19	4.234	[(None, 0.0), (19, 2.033), (19, 4.234)]	15.147504284	147.254099141	1691.99781031	161.516226076	2019_Mar_27_0855	Sound Switch 12-20-2018	318-laptop	bpl	HP
68	beautiful	1	11	0.1	2	../stimuli/combined/switch-0.1_chunk-500_C_G_alternating_02.mp3	20	3.031	[(None, 0.0), (20, 2.124), (20, 3.031)]	13.9370032758	161.196405549	1705.94011633	175.458531694	2019_Mar_27_0855	Sound Switch 12-20-2018	318-laptop	bpl	HP
68	beautiful	1	12	0.2	0	../stimuli/combined/switch-0.2_chunk-500_C_G_alternating_00.mp3	20	3.28	[(None, 0.0), (20, 2.455), (20, 3.279)]	14.1991630043	175.399808057	1720.14351923	189.661934991	2019_Mar_27_0855	Sound Switch 12-20-2018	318-laptop	bpl	HP
68	beautiful	1	13	0.9	3	../stimuli/combined/switch-0.9_chunk-500_C_G_alternating_03.mp3	20	2.808	[(None, 0.0), (20, 1.854), (20, 2.808)]	13.7310147901	189.135541615	1733.87925279	203.397668945	2019_Mar_27_0855	Sound Switch 12-20-2018	318-laptop	bpl	HP
68	beautiful	1	14	0.6	7	../stimuli/combined/switch-0.6_chunk-500_C_G_alternating_07.mp3	21	3.697	[(None, 0.0), (21, 2.96), (21, 3.697)]	14.6226526172	203.761801168	1748.50551274	218.023928893	2019_Mar_27_0855	Sound Switch 12-20-2018	318-laptop	bpl	HP
68	beautiful	1	15	0.8	16	../stimuli/combined/switch-0.8_chunk-500_C_G_alternating_16.mp3	12	2.592	[(None, 0.0), (12, 1.729), (12, 2.592)]	13.5213115039	217.286916767	1762.03062794	231.549043702	2019_Mar_27_0855	Sound Switch 12-20-2018	318-laptop	bpl	HP
68	beautiful	1	16	0.9	11	../stimuli/combined/switch-0.9_chunk-500_C_G_alternating_11.mp3	12	2.647	[(None, 0.0), (12, 1.755), (12, 2.647)]	13.5633991411	230.854719381	1775.59843055	245.116846315	2019_Mar_27_0855	Sound Switch 12-20-2018	318-laptop	bpl	HP
68	beautiful	1	17	0.4	19	../stimuli/combined/switch-0.4_chunk-500_C_G_alternating_19.mp3	12	2.604	[(None, 0.0), (12, 1.774), (12, 2.604)]	13.5216386529	244.382174016	1789.12588519	258.644300555	2019_Mar_27_0855	Sound Switch 12-20-2018	318-laptop	bpl	HP
68	beautiful	1	18	0.9	7	../stimuli/combined/switch-0.9_chunk-500_C_G_alternating_07.mp3	20	2.209	[(None, 0.0), (20, 1.41), (20, 2.209)]	13.132536823	257.519392072	1802.26310325	271.781519006	2019_Mar_27_0855	Sound Switch 12-20-2018	318-laptop	bpl	HP
68	beautiful	1	19	0.2	3	../stimuli/combined/switch-0.2_chunk-500_C_G_alternating_03.mp3	19	3.228	[(None, 0.0), (19, 2.071), (19, 3.228)]	14.1514984253	271.675565014	1816.41927579	285.937691553	2019_Mar_27_0855	Sound Switch 12-20-2018	318-laptop	bpl	HP
68	beautiful	1	20	0.7	1	../stimuli/combined/switch-0.7_chunk-500_C_G_alternating_01.mp3	20	2.959	[(None, 0.0), (20, 1.615), (20, 2.959)]	13.9132699607	285.593713761	1830.33742493	299.855840696	2019_Mar_27_0855	Sound Switch 12-20-2018	318-laptop	bpl	HP
68	beautiful	1	21	0.7	9	../stimuli/combined/switch-0.7_chunk-500_C_G_alternating_09.mp3	20	2.957	[(None, 0.0), (20, 1.946), (20, 2.957)]	13.8795123742	299.478197378	1844.22190816	313.740323917	2019_Mar_27_0855	Sound Switch 12-20-2018	318-laptop	bpl	HP
68	beautiful	1	22	0.7	12	../stimuli/combined/switch-0.7_chunk-500_C_G_alternating_12.mp3	12	2.694	[(None, 0.0), (12, 1.802), (12, 2.694)]	13.6169452899	313.099836544	1857.84354732	327.361963084	2019_Mar_27_0855	Sound Switch 12-20-2018	318-laptop	bpl	HP
68	beautiful	1	23	0.9	16	../stimuli/combined/switch-0.9_chunk-500_C_G_alternating_16.mp3	12	2.832	[(None, 0.0), (12, 1.892), (12, 2.832)]	13.7470083451	326.850549812	1871.59426099	341.112676351	2019_Mar_27_0855	Sound Switch 12-20-2018	318-laptop	bpl	HP
68	beautiful	1	24	0.2	15	../stimuli/combined/switch-0.2_chunk-500_C_G_alternating_15.mp3	12	3.176	[(None, 0.0), (12, 2.424), (12, 3.176)]	14.0998045403	340.953824976	1885.69753615	355.215951516	2019_Mar_27_0855	Sound Switch 12-20-2018	318-laptop	bpl	HP
68	beautiful	1	25	0.4	16	../stimuli/combined/switch-0.4_chunk-500_C_G_alternating_16.mp3	12	2.838	[(None, 0.0), (12, 1.957), (12, 2.838)]	13.7804889613	354.73814806	1899.48185923	369.000274995	2019_Mar_27_0855	Sound Switch 12-20-2018	318-laptop	bpl	HP
68	beautiful	1	26	0.9	17	../stimuli/combined/switch-0.9_chunk-500_C_G_alternating_17.mp3	12	2.691	[(None, 0.0), (12, 1.695), (12, 2.691)]	13.6190618805	368.369939908	1913.11365148	382.632067238	2019_Mar_27_0855	Sound Switch 12-20-2018	318-laptop	bpl	HP
68	beautiful	1	27	0.2	10	../stimuli/combined/switch-0.2_chunk-500_C_G_alternating_10.mp3	12	2.598	[(None, 0.0), (12, 1.565), (12, 2.598)]	13.5188045471	381.896100566	1926.63981174	396.158227501	2019_Mar_27_0855	Sound Switch 12-20-2018	318-laptop	bpl	HP
68	beautiful	1	28	0.1	7	../stimuli/combined/switch-0.1_chunk-500_C_G_alternating_07.mp3	19	2.624	[(None, 0.0), (19, 1.919), (19, 2.624)]	13.5460155981	395.447375044	1940.19108582	409.709501979	2019_Mar_27_0855	Sound Switch 12-20-2018	318-laptop	bpl	HP
68	beautiful	1	29	0.6	0	../stimuli/combined/switch-0.6_chunk-500_C_G_alternating_00.mp3	20	2.225	[(None, 0.0), (20, 1.411), (20, 2.225)]	13.1375056945	408.589870551	1953.33358172	422.851997881	2019_Mar_27_0855	Sound Switch 12-20-2018	318-laptop	bpl	HP
68	beautiful	1	30	0.7	13	../stimuli/combined/switch-0.7_chunk-500_C_G_alternating_13.mp3	12	2.826	[(None, 0.0), (12, 1.809), (12, 2.826)]	13.7340172117	422.329062485	1967.07277366	436.591189025	2019_Mar_27_0855	Sound Switch 12-20-2018	318-laptop	bpl	HP
68	beautiful	1	31	0.2	6	../stimuli/combined/switch-0.2_chunk-500_C_G_alternating_06.mp3	20	2.631	[(None, 0.0), (20, 1.739), (20, 2.631)]	13.5569363683	435.889596702	1980.63330827	450.151724427	2019_Mar_27_0855	Sound Switch 12-20-2018	318-laptop	bpl	HP
68	beautiful	1	32	0.4	18	../stimuli/combined/switch-0.4_chunk-500_C_G_alternating_18.mp3	12	2.197	[(None, 0.0), (12, 1.507), (12, 2.197)]	13.1198684924	449.014175666	1993.75788684	463.2763026	2019_Mar_27_0855	Sound Switch 12-20-2018	318-laptop	bpl	HP
68	beautiful	1	33	0.4	10	../stimuli/combined/switch-0.4_chunk-500_C_G_alternating_10.mp3	12	2.147	[(None, 0.0), (12, 1.489), (12, 2.147)]	13.0602637658	462.078604259	2006.82231583	476.340731194	2019_Mar_27_0855	Sound Switch 12-20-2018	318-laptop	bpl	HP
68	beautiful	1	34	0.1	18	../stimuli/combined/switch-0.1_chunk-500_C_G_alternating_18.mp3	12	2.195	[(None, 0.0), (12, 1.474), (12, 2.194)]	13.1103977665	475.193990257	2019.93770143	489.456116797	2019_Mar_27_0855	Sound Switch 12-20-2018	318-laptop	bpl	HP
68	beautiful	1	35	0.6	9	../stimuli/combined/switch-0.6_chunk-500_C_G_alternating_09.mp3	20	2.568	[(None, 0.0), (20, 1.598), (20, 2.568)]	13.491049038	488.690023971	2033.43373475	502.952150511	2019_Mar_27_0855	Sound Switch 12-20-2018	318-laptop	bpl	HP
68	beautiful	1	36	0.4	2	../stimuli/combined/switch-0.4_chunk-500_C_G_alternating_02.mp3	20	2.281	[(None, 0.0), (20, 1.404), (20, 2.281)]	13.2014609494	501.896613415	2046.64032459	516.15874035	2019_Mar_27_0855	Sound Switch 12-20-2018	318-laptop	bpl	HP
68	beautiful	1	37	0.4	7	../stimuli/combined/switch-0.4_chunk-500_C_G_alternating_07.mp3	20	3.012	[(None, 0.0), (20, 1.917), (20, 3.012)]	13.9349293568	515.835235051	2060.57894662	530.097361986	2019_Mar_27_0855	Sound Switch 12-20-2018	318-laptop	bpl	HP
68	beautiful	1	38	0.4	15	../stimuli/combined/switch-0.4_chunk-500_C_G_alternating_15.mp3	12	2.287	[(None, 0.0), (12, 1.504), (12, 2.287)]	13.2005158523	529.040452683	2073.78416346	543.302580012	2019_Mar_27_0855	Sound Switch 12-20-2018	318-laptop	bpl	HP
68	beautiful	1	39	0.7	5	../stimuli/combined/switch-0.7_chunk-500_C_G_alternating_05.mp3	21	1.962	[(None, 0.0), (21, 0.981), (21, 1.962)]	12.8728658764	541.91707129	2086.66078246	556.179197829	2019_Mar_27_0855	Sound Switch 12-20-2018	318-laptop	bpl	HP
68	beautiful	1	40	0.3	5	../stimuli/combined/switch-0.3_chunk-500_C_G_alternating_05.mp3	20	1.883	[(None, 0.0), (20, 1.24), (20, 1.883)]	12.8059149168	554.727748437	2099.47145961	568.989875371	2019_Mar_27_0855	Sound Switch 12-20-2018	318-laptop	bpl	HP
68	beautiful	1	41	0.3	4	../stimuli/combined/switch-0.3_chunk-500_C_G_alternating_04.mp3	19	2.237	[(None, 0.0), (19, 1.294), (19, 2.236)]	13.1727160912	567.909133186	2112.65284436	582.17126012	2019_Mar_27_0855	Sound Switch 12-20-2018	318-laptop	bpl	HP
68	beautiful	1	42	0.3	17	../stimuli/combined/switch-0.3_chunk-500_C_G_alternating_17.mp3	12	2.544	[(None, 0.0), (12, 1.714), (12, 2.544)]	13.4515576519	581.365381948	2126.10909312	595.627508883	2019_Mar_27_0855	Sound Switch 12-20-2018	318-laptop	bpl	HP
68	beautiful	1	43	0.5	18	../stimuli/combined/switch-0.5_chunk-500_C_G_alternating_18.mp3	12	2.114	[(None, 0.0), (12, 1.472), (12, 2.114)]	13.0534106269	594.423586414	2139.16729759	608.685713349	2019_Mar_27_0855	Sound Switch 12-20-2018	318-laptop	bpl	HP
68	beautiful	1	44	0.7	6	../stimuli/combined/switch-0.7_chunk-500_C_G_alternating_06.mp3	20	2.026	[(None, 0.0), (20, 1.319), (20, 2.026)]	12.9502125085	607.378603034	2152.12231381	621.640730364	2019_Mar_27_0855	Sound Switch 12-20-2018	318-laptop	bpl	HP
68	beautiful	1	45	0.5	16	../stimuli/combined/switch-0.5_chunk-500_C_G_alternating_16.mp3	12	2.792	[(None, 0.0), (12, 2.072), (12, 2.792)]	13.7006136414	621.084365321	2165.82807649	635.346492256	2019_Mar_27_0855	Sound Switch 12-20-2018	318-laptop	bpl	HP
68	beautiful	1	46	0.9	15	../stimuli/combined/switch-0.9_chunk-500_C_G_alternating_15.mp3	12	2.477	[(None, 0.0), (12, 1.586), (12, 2.477)]	13.4088757731	634.496979206	2179.24069038	648.759105745	2019_Mar_27_0855	Sound Switch 12-20-2018	318-laptop	bpl	HP
68	beautiful	1	47	0.8	5	../stimuli/combined/switch-0.8_chunk-500_C_G_alternating_05.mp3	20	1.973	[(None, 0.0), (20, 1.222), (20, 1.973)]	13.01897148	647.519857113	2192.26356908	661.781984838	2019_Mar_27_0855	Sound Switch 12-20-2018	318-laptop	bpl	HP
68	beautiful	1	48	0.3	16	../stimuli/combined/switch-0.3_chunk-500_C_G_alternating_16.mp3	12	3.042	[(None, 0.0), (12, 1.993), (12, 3.042)]	13.9652992919	661.489842775	2206.23355395	675.751969314	2019_Mar_27_0855	Sound Switch 12-20-2018	318-laptop	bpl	HP
68	beautiful	1	49	0.6	6	../stimuli/combined/switch-0.6_chunk-500_C_G_alternating_06.mp3	20	2.457	[(None, 0.0), (20, 1.674), (20, 2.457)]	13.3818788703	674.876679059	2219.62039181	689.138807969	2019_Mar_27_0855	Sound Switch 12-20-2018	318-laptop	bpl	HP
68	beautiful	1	50	0.8	2	../stimuli/combined/switch-0.8_chunk-500_C_G_alternating_02.mp3	20	2.29	[(None, 0.0), (20, 1.48), (20, 2.289)]	13.2081714545	688.088665276	2232.83237605	702.350791815	2019_Mar_27_0855	Sound Switch 12-20-2018	318-laptop	bpl	HP
68	beautiful	1	51	0.8	14	../stimuli/combined/switch-0.8_chunk-500_C_G_alternating_14.mp3	12	2.772	[(None, 0.0), (12, 1.693), (12, 2.772)]	13.695045787	701.788318806	2246.53202958	716.050445345	2019_Mar_27_0855	Sound Switch 12-20-2018	318-laptop	bpl	HP
68	beautiful	1	52	0.9	9	../stimuli/combined/switch-0.9_chunk-500_C_G_alternating_09.mp3	19	2.334	[(None, 0.0), (19, 1.614), (19, 2.334)]	13.2586326042	715.050641714	2259.79435249	729.312769043	2019_Mar_27_0855	Sound Switch 12-20-2018	318-laptop	bpl	HP
68	beautiful	1	53	0.6	13	../stimuli/combined/switch-0.6_chunk-500_C_G_alternating_13.mp3	12	2.51	[(None, 0.0), (12, 1.54), (12, 2.51)]	13.4473513379	728.502039742	2273.24575092	742.764166677	2019_Mar_27_0855	Sound Switch 12-20-2018	318-laptop	bpl	HP
68	beautiful	1	54	0.9	12	../stimuli/combined/switch-0.9_chunk-500_C_G_alternating_12.mp3	12	2.489	[(None, 0.0), (12, 1.721), (12, 2.488)]	13.4122693511	741.919051173	2286.66276235	756.181177713	2019_Mar_27_0855	Sound Switch 12-20-2018	318-laptop	bpl	HP
68	beautiful	1	55	0.2	18	../stimuli/combined/switch-0.2_chunk-500_C_G_alternating_18.mp3	12	2.669	[(None, 0.0), (12, 1.902), (12, 2.669)]	13.5939148709	755.517706148	2300.26141772	769.779833873	2019_Mar_27_0855	Sound Switch 12-20-2018	318-laptop	bpl	HP
68	beautiful	1	56	0.8	8	../stimuli/combined/switch-0.8_chunk-500_C_G_alternating_08.mp3	19	2.206	[(None, 0.0), (19, 1.117), (19, 2.206)]	13.1288951175	768.651310552	2313.39502212	782.913437881	2019_Mar_27_0855	Sound Switch 12-20-2018	318-laptop	bpl	HP
68	beautiful	1	57	0.1	9	../stimuli/combined/switch-0.1_chunk-500_C_G_alternating_09.mp3	20	1.967	[(None, 0.0), (20, 1.323), (20, 1.966)]	12.889420484	781.544916804	2326.28862758	795.807043344	2019_Mar_27_0855	Sound Switch 12-20-2018	318-laptop	bpl	HP
68	beautiful	1	58	0.4	12	../stimuli/combined/switch-0.4_chunk-500_C_G_alternating_12.mp3	12	1.865	[(None, 0.0), (12, 1.207), (12, 1.865)]	12.7843918328	794.33443081	2339.07814159	808.59655735	2019_Mar_27_0855	Sound Switch 12-20-2018	318-laptop	bpl	HP
68	beautiful	1	59	0.2	1	../stimuli/combined/switch-0.2_chunk-500_C_G_alternating_01.mp3	20	2.865	[(None, 0.0), (20, 2.074), (20, 2.864)]	13.779042868	808.118201534	2352.8619131	822.380328864	2019_Mar_27_0855	Sound Switch 12-20-2018	318-laptop	bpl	HP
68	beautiful	1	60	0.2	14	../stimuli/combined/switch-0.2_chunk-500_C_G_alternating_14.mp3	12	3.112	[(None, 0.0), (12, 2.22), (12, 3.112)]	14.0269807033	822.150148738	2366.89385991	836.412275673	2019_Mar_27_0855	Sound Switch 12-20-2018	318-laptop	bpl	HP
68	beautiful	1	61	0.9	10	../stimuli/combined/switch-0.9_chunk-500_C_G_alternating_10.mp3	12	1.952	[(None, 0.0), (12, 1.169), (12, 1.952)]	12.8495841692	835.004712052	2379.74842322	849.266838986	2019_Mar_27_0855	Sound Switch 12-20-2018	318-laptop	bpl	HP
68	beautiful	1	62	0.4	3	../stimuli/combined/switch-0.4_chunk-500_C_G_alternating_03.mp3	20	2.083	[(None, 0.0), (20, 1.159), (20, 2.083)]	13.0146170006	848.023255235	2392.76696641	862.28538217	2019_Mar_27_0855	Sound Switch 12-20-2018	318-laptop	bpl	HP
68	beautiful	1	63	0.5	19	../stimuli/combined/switch-0.5_chunk-500_C_G_alternating_19.mp3	12	2.449	[(None, 0.0), (12, 1.713), (12, 2.449)]	13.3541695888	861.440036318	2406.18374749	875.702162858	2019_Mar_27_0855	Sound Switch 12-20-2018	318-laptop	bpl	HP
68	beautiful	1	64	0.7	18	../stimuli/combined/switch-0.7_chunk-500_C_G_alternating_18.mp3	12	2.525	[(None, 0.0), (12, 1.898), (12, 2.525)]	13.4734849308	874.918240018	2419.66195119	889.180366557	2019_Mar_27_0855	Sound Switch 12-20-2018	318-laptop	bpl	HP
68	beautiful	1	65	0.1	1	../stimuli/combined/switch-0.1_chunk-500_C_G_alternating_01.mp3	21	2.817	[(None, 0.0), (21, 2.112), (21, 2.817)]	13.7579982592	888.680439059	2433.42415023	902.942566784	2019_Mar_27_0855	Sound Switch 12-20-2018	318-laptop	bpl	HP
68	beautiful	1	66	0.7	4	../stimuli/combined/switch-0.7_chunk-500_C_G_alternating_04.mp3	20	2.273	[(None, 0.0), (20, 1.241), (20, 2.273)]	13.198224229	901.884046627	2446.62775899	916.146175538	2019_Mar_27_0855	Sound Switch 12-20-2018	318-laptop	bpl	HP
68	beautiful	1	67	0.1	13	../stimuli/combined/switch-0.1_chunk-500_C_G_alternating_13.mp3	12	3.162	[(None, 0.0), (12, 2.083), (12, 3.162)]	14.0741114922	915.963134893	2460.70684567	930.225261433	2019_Mar_27_0855	Sound Switch 12-20-2018	318-laptop	bpl	HP
68	beautiful	1	68	0.8	3	../stimuli/combined/switch-0.8_chunk-500_C_G_alternating_03.mp3	20	2.236	[(None, 0.0), (20, 1.609), (20, 2.236)]	13.1510555098	929.11907077	2473.86278155	943.38119731	2019_Mar_27_0855	Sound Switch 12-20-2018	318-laptop	bpl	HP
68	beautiful	1	69	0.3	8	../stimuli/combined/switch-0.3_chunk-500_C_G_alternating_08.mp3	21	2.042	[(None, 0.0), (21, 1.321), (21, 2.042)]	12.9824279907	942.105402028	2486.8491132	956.367528962	2019_Mar_27_0855	Sound Switch 12-20-2018	318-laptop	bpl	HP
68	beautiful	1	70	0.2	13	../stimuli/combined/switch-0.2_chunk-500_C_G_alternating_13.mp3	12	2.769	[(None, 0.0), (12, 1.862), (12, 2.769)]	13.6929991304	955.803123483	2500.54683624	970.065252393	2019_Mar_27_0855	Sound Switch 12-20-2018	318-laptop	bpl	HP
68	beautiful	1	71	0.7	15	../stimuli/combined/switch-0.7_chunk-500_C_G_alternating_15.mp3	12	2.132	[(None, 0.0), (12, 1.535), (12, 2.132)]	13.0394850643	968.847677381	2513.59138855	983.10980471	2019_Mar_27_0855	Sound Switch 12-20-2018	318-laptop	bpl	HP
68	beautiful	1	72	0.6	19	../stimuli/combined/switch-0.6_chunk-500_C_G_alternating_19.mp3	12	2.342	[(None, 0.0), (12, 1.637), (12, 2.342)]	13.2558771247	982.107279974	2526.85099115	996.369406513	2019_Mar_27_0855	Sound Switch 12-20-2018	318-laptop	bpl	HP
68	beautiful	1	73	0.6	5	../stimuli/combined/switch-0.6_chunk-500_C_G_alternating_05.mp3	20	2.153	[(None, 0.0), (20, 1.526), (20, 2.153)]	13.0985939311	995.211152145	2539.95486292	1009.47327868	2019_Mar_27_0855	Sound Switch 12-20-2018	318-laptop	bpl	HP
68	beautiful	1	74	0.5	13	../stimuli/combined/switch-0.5_chunk-500_C_G_alternating_13.mp3	12	2.195	[(None, 0.0), (12, 1.333), (12, 2.195)]	13.1188510907	1008.33481248	2553.07852405	1022.59693942	2019_Mar_27_0855	Sound Switch 12-20-2018	318-laptop	bpl	HP
68	beautiful	1	75	0.1	4	../stimuli/combined/switch-0.1_chunk-500_C_G_alternating_04.mp3	20	2.526	[(None, 0.0), (20, 1.728), (20, 2.526)]	13.4480585802	1021.78794108	2566.53165186	1036.05006762	2019_Mar_27_0855	Sound Switch 12-20-2018	318-laptop	bpl	HP
68	beautiful	1	76	0.5	11	../stimuli/combined/switch-0.5_chunk-500_C_G_alternating_11.mp3	12	2.709	[(None, 0.0), (12, 1.911), (12, 2.709)]	13.6534338592	1035.4460783	2580.18978908	1049.70820484	2019_Mar_27_0855	Sound Switch 12-20-2018	318-laptop	bpl	HP
68	beautiful	1	77	0.8	19	../stimuli/combined/switch-0.8_chunk-500_C_G_alternating_19.mp3	12	1.466	[(None, 0.0), (12, 0.851), (12, 1.466)]	12.3970454654	1047.84800927	2592.59172044	1062.11013621	2019_Mar_27_0855	Sound Switch 12-20-2018	318-laptop	bpl	HP
68	beautiful	1	78	0.7	8	../stimuli/combined/switch-0.7_chunk-500_C_G_alternating_08.mp3	21	2.109	[(None, 0.0), (21, 1.285), (21, 2.109)]	13.0391816218	1060.89188674	2605.63559792	1075.15401368	2019_Mar_27_0855	Sound Switch 12-20-2018	318-laptop	bpl	HP
68	beautiful	1	79	0.6	12	../stimuli/combined/switch-0.6_chunk-500_C_G_alternating_12.mp3	12	2.16	[(None, 0.0), (12, 1.455), (12, 2.16)]	13.0804648202	1073.97649229	2618.72020307	1088.23861883	2019_Mar_27_0855	Sound Switch 12-20-2018	318-laptop	bpl	HP
68	beautiful	1	80	0.7	16	../stimuli/combined/switch-0.7_chunk-500_C_G_alternating_16.mp3	12	2.714	[(None, 0.0), (12, 2.009), (12, 2.714)]	13.6543793514	1087.63557184	2632.3792838	1101.89770036	2019_Mar_27_0855	Sound Switch 12-20-2018	318-laptop	bpl	HP
68	beautiful	1	81	0.3	6	../stimuli/combined/switch-0.3_chunk-500_C_G_alternating_06.mp3	20	2.582	[(None, 0.0), (20, 1.502), (20, 2.581)]	13.5213439027	1101.16167442	2645.9053852	1115.42380096	2019_Mar_27_0855	Sound Switch 12-20-2018	318-laptop	bpl	HP
68	beautiful	1	82	0.9	8	../stimuli/combined/switch-0.9_chunk-500_C_G_alternating_08.mp3	21	2.369	[(None, 0.0), (21, 1.149), (21, 2.369)]	13.2944909771	1114.46088811	2659.20459929	1128.72301465	2019_Mar_27_0855	Sound Switch 12-20-2018	318-laptop	bpl	HP
68	beautiful	1	83	0.5	5	../stimuli/combined/switch-0.5_chunk-500_C_G_alternating_05.mp3	20	2.193	[(None, 0.0), (20, 1.207), (20, 2.193)]	13.1061238891	1127.57174263	2672.3154538	1141.83386916	2019_Mar_27_0855	Sound Switch 12-20-2018	318-laptop	bpl	HP
68	beautiful	1	84	0.9	4	../stimuli/combined/switch-0.9_chunk-500_C_G_alternating_04.mp3	20	2.054	[(None, 0.0), (20, 1.365), (20, 2.054)]	12.9747000838	1140.55117215	2685.29488371	1154.81329908	2019_Mar_27_0855	Sound Switch 12-20-2018	318-laptop	bpl	HP
68	beautiful	1	85	0.3	1	../stimuli/combined/switch-0.3_chunk-500_C_G_alternating_01.mp3	20	2.277	[(None, 0.0), (20, 1.525), (20, 2.277)]	13.218401577	1153.77439759	2698.51810837	1168.03652413	2019_Mar_27_0855	Sound Switch 12-20-2018	318-laptop	bpl	HP
68	beautiful	1	86	0.8	7	../stimuli/combined/switch-0.8_chunk-500_C_G_alternating_07.mp3	21	1.944	[(None, 0.0), (21, 1.098), (21, 1.944)]	12.8817348537	1166.66103099	2711.40474216	1180.92315792	2019_Mar_27_0855	Sound Switch 12-20-2018	318-laptop	bpl	HP
68	beautiful	1	87	0.5	9	../stimuli/combined/switch-0.5_chunk-500_C_G_alternating_09.mp3	21	2.382	[(None, 0.0), (21, 1.178), (21, 2.382)]	13.3076338318	1179.97383164	2724.71754281	1194.23595818	2019_Mar_27_0855	Sound Switch 12-20-2018	318-laptop	bpl	HP
68	beautiful	1	88	0.2	2	../stimuli/combined/switch-0.2_chunk-500_C_G_alternating_02.mp3	21	2.356	[(None, 0.0), (21, 1.464), (21, 2.356)]	13.2796005622	1193.25845164	2738.00216282	1207.52057858	2019_Mar_27_0855	Sound Switch 12-20-2018	318-laptop	bpl	HP
68	beautiful	1	89	0.3	3	../stimuli/combined/switch-0.3_chunk-500_C_G_alternating_03.mp3	20	2.011	[(None, 0.0), (20, 1.104), (20, 2.011)]	12.9242954345	1206.18742634	2750.93113751	1220.44955406	2019_Mar_27_0855	Sound Switch 12-20-2018	318-laptop	bpl	HP
68	beautiful	1	90	0.3	18	../stimuli/combined/switch-0.3_chunk-500_C_G_alternating_18.mp3	12	2.225	[(None, 0.0), (12, 1.535), (12, 2.225)]	13.1415749063	1219.33344186	2764.07715263	1233.5955684	2019_Mar_27_0855	Sound Switch 12-20-2018	318-laptop	bpl	HP
68	beautiful	1	91	0.1	5	../stimuli/combined/switch-0.1_chunk-500_C_G_alternating_05.mp3	20	1.994	[(None, 0.0), (20, 1.351), (20, 1.994)]	12.9185090857	1232.25535124	2776.99906241	1246.51747817	2019_Mar_27_0855	Sound Switch 12-20-2018	318-laptop	bpl	HP
68	beautiful	1	92	0.6	4	../stimuli/combined/switch-0.6_chunk-500_C_G_alternating_04.mp3	20	1.611	[(None, 0.0), (20, 0.958), (20, 1.611)]	12.5341477552	1244.79428058	2789.53799136	1259.05640712	2019_Mar_27_0855	Sound Switch 12-20-2018	318-laptop	bpl	HP
68	beautiful	1	93	0.6	11	../stimuli/combined/switch-0.6_chunk-500_C_G_alternating_11.mp3	12	2.512	[(None, 0.0), (12, 1.667), (12, 2.512)]	13.4365652992	1258.23457649	2802.97828726	1272.49670303	2019_Mar_27_0855	Sound Switch 12-20-2018	318-laptop	bpl	HP
68	beautiful	1	94	0.5	10	../stimuli/combined/switch-0.5_chunk-500_C_G_alternating_10.mp3	12	2.442	[(None, 0.0), (12, 1.878), (12, 2.442)]	13.3663602345	1271.60596367	2816.34967485	1285.86809061	2019_Mar_27_0855	Sound Switch 12-20-2018	318-laptop	bpl	HP
68	beautiful	1	95	0.8	12	../stimuli/combined/switch-0.8_chunk-500_C_G_alternating_12.mp3	12	3.566	[(None, 0.0), (12, 2.253), (12, 3.566)]	14.4887321278	1286.09938138	2830.84309334	1300.36150911	2019_Mar_27_0855	Sound Switch 12-20-2018	318-laptop	bpl	HP
68	beautiful	1	96	0.6	3	../stimuli/combined/switch-0.6_chunk-500_C_G_alternating_03.mp3	20	2.232	[(None, 0.0), (20, 1.418), (20, 2.232)]	13.1449210714	1299.24804886	2843.99176003	1313.5101754	2019_Mar_27_0855	Sound Switch 12-20-2018	318-laptop	bpl	HP
68	beautiful	1	97	0.5	0	../stimuli/combined/switch-0.5_chunk-500_C_G_alternating_00.mp3	20	2.619	[(None, 0.0), (20, 1.794), (20, 2.619)]	13.5318367716	1312.78453802	2857.5282488	1327.04666417	2019_Mar_27_0855	Sound Switch 12-20-2018	318-laptop	bpl	HP
68	beautiful	1	98	0.2	16	../stimuli/combined/switch-0.2_chunk-500_C_G_alternating_16.mp3	12	2.446	[(None, 0.0), (12, 1.679), (12, 2.446)]	13.3670216444	1326.15502594	2870.89873791	1340.41715327	2019_Mar_27_0855	Sound Switch 12-20-2018	318-laptop	bpl	HP
68	beautiful	1	99	0.5	6	../stimuli/combined/switch-0.5_chunk-500_C_G_alternating_06.mp3	20	2.195	[(None, 0.0), (20, 1.49), (20, 2.195)]	13.0862567005	1339.24596981	2883.98968098	1353.50809674	2019_Mar_27_0855	Sound Switch 12-20-2018	318-laptop	bpl	HP
68	beautiful	1	100	0.7	7	../stimuli/combined/switch-0.7_chunk-500_C_G_alternating_07.mp3	20	1.9	[(None, 0.0), (20, 0.962), (20, 1.9)]	12.8180885728	1352.0690154	2896.81272657	1366.33114194	2019_Mar_27_0855	Sound Switch 12-20-2018	318-laptop	bpl	HP
68	beautiful	1	101	0.9	1	../stimuli/combined/switch-0.9_chunk-500_C_G_alternating_01.mp3	12	2.402	[(None, 0.0), (12, 1.759), (12, 2.402)]	13.3255835638	1365.39945286	2910.14316363	1379.66157979	2019_Mar_27_0855	Sound Switch 12-20-2018	318-laptop	bpl	HP
68	beautiful	1	102	0.2	5	../stimuli/combined/switch-0.2_chunk-500_C_G_alternating_05.mp3	20	2.946	[(None, 0.0), (20, 1.82), (20, 2.946)]	13.8684564771	1379.27264667	2924.01635784	1393.53477361	2019_Mar_27_0855	Sound Switch 12-20-2018	318-laptop	bpl	HP
68	beautiful	1	103	0.5	15	../stimuli/combined/switch-0.5_chunk-500_C_G_alternating_15.mp3	12	3.44	[(None, 0.0), (12, 2.007), (12, 3.44)]	14.3614526047	1393.63881291	2938.38252369	1407.90093945	2019_Mar_27_0855	Sound Switch 12-20-2018	318-laptop	bpl	HP
68	beautiful	1	104	0.4	1	../stimuli/combined/switch-0.4_chunk-500_C_G_alternating_01.mp3	19	2.645	[(None, 0.0), (20, 1.753), (19, 1.802), (19, 2.645)]	13.5747723094	1407.21749915	2951.96121112	1421.47962648	2019_Mar_27_0855	Sound Switch 12-20-2018	318-laptop	bpl	HP
68	beautiful	1	105	0.9	19	../stimuli/combined/switch-0.9_chunk-500_C_G_alternating_19.mp3	12	2.675	[(None, 0.0), (12, 1.923), (12, 2.674)]	13.6000275785	1420.82251852	2965.56622969	1435.08464585	2019_Mar_27_0855	Sound Switch 12-20-2018	318-laptop	bpl	HP
68	beautiful	1	106	0.4	4	../stimuli/combined/switch-0.4_chunk-500_C_G_alternating_04.mp3	20	1.74	[(None, 0.0), (20, 0.942), (20, 1.74)]	12.6642436043	1433.49063062	2978.23434179	1447.75275716	2019_Mar_27_0855	Sound Switch 12-20-2018	318-laptop	bpl	HP
68	beautiful	1	107	0.1	15	../stimuli/combined/switch-0.1_chunk-500_C_G_alternating_15.mp3	12	2.104	[(None, 0.0), (12, 1.181), (12, 2.104)]	13.0285042377	1446.52407607	2991.26778685	1460.78620261	2019_Mar_27_0855	Sound Switch 12-20-2018	318-laptop	bpl	HP
68	beautiful	1	108	0.8	10	../stimuli/combined/switch-0.8_chunk-500_C_G_alternating_10.mp3	12	1.943	[(None, 0.0), (12, 1.097), (12, 1.943)]	12.8673904772	1459.39615845	3004.13986923	1473.65828499	2019_Mar_27_0855	Sound Switch 12-20-2018	318-laptop	bpl	HP
68	beautiful	1	109	0.1	16	../stimuli/combined/switch-0.1_chunk-500_C_G_alternating_16.mp3	12	3.211	[(None, 0.0), (12, 2.569), (12, 3.211)]	14.1093349275	1473.5104342	3018.25414537	1487.77256192	2019_Mar_27_0855	Sound Switch 12-20-2018	318-laptop	bpl	HP
68	beautiful	1	110	0.1	11	../stimuli/combined/switch-0.1_chunk-500_C_G_alternating_11.mp3	12	1.909	[(None, 0.0), (12, 1.225), (12, 1.909)]	12.8169554046	1486.33238455	3031.07609572	1500.59451148	2019_Mar_27_0855	Sound Switch 12-20-2018	318-laptop	bpl	HP
68	beautiful	1	111	0.7	11	../stimuli/combined/switch-0.7_chunk-500_C_G_alternating_11.mp3	12	2.165	[(None, 0.0), (12, 1.508), (12, 2.165)]	13.0823360492	1499.41955	3044.16326077	1513.68167654	2019_Mar_27_0855	Sound Switch 12-20-2018	318-laptop	bpl	HP
68	beautiful	1	112	0.2	9	../stimuli/combined/switch-0.2_chunk-500_C_G_alternating_09.mp3	20	2.148	[(None, 0.0), (20, 1.537), (20, 2.148)]	13.0600357888	1512.48457402	3057.22828519	1526.74670056	2019_Mar_27_0855	Sound Switch 12-20-2018	318-laptop	bpl	HP
68	beautiful	1	113	0.7	0	../stimuli/combined/switch-0.7_chunk-500_C_G_alternating_00.mp3	20	2.37	[(None, 0.0), (20, 1.665), (20, 2.37)]	13.290247523	1525.77981056	3070.52352134	1540.0419371	2019_Mar_27_0855	Sound Switch 12-20-2018	318-laptop	bpl	HP
68	beautiful	1	114	0.6	10	../stimuli/combined/switch-0.6_chunk-500_C_G_alternating_10.mp3	12	2.932	[(None, 0.0), (12, 2.291), (12, 2.932)]	13.8704438677	1539.65516166	3084.39887323	1553.91728899	2019_Mar_27_0855	Sound Switch 12-20-2018	318-laptop	bpl	HP
68	beautiful	1	115	0.4	6	../stimuli/combined/switch-0.4_chunk-500_C_G_alternating_06.mp3	20	2.287	[(None, 0.0), (20, 1.457), (20, 2.287)]	13.2045131545	1552.86450856	3097.60821934	1567.1266351	2019_Mar_27_0855	Sound Switch 12-20-2018	318-laptop	bpl	HP
68	beautiful	1	116	0.9	13	../stimuli/combined/switch-0.9_chunk-500_C_G_alternating_13.mp3	12	2.289	[(None, 0.0), (12, 1.272), (12, 2.289)]	13.218467955	1566.08687188	3110.83058306	1580.34899882	2019_Mar_27_0855	Sound Switch 12-20-2018	318-laptop	bpl	HP
68	beautiful	1	117	0.6	17	../stimuli/combined/switch-0.6_chunk-500_C_G_alternating_17.mp3	12	2.226	[(None, 0.0), (12, 1.443), (12, 2.226)]	13.1500108457	1579.24168289	3123.98539446	1593.50381022	2019_Mar_27_0855	Sound Switch 12-20-2018	318-laptop	bpl	HP
68	beautiful	1	118	0.1	6	../stimuli/combined/switch-0.1_chunk-500_C_G_alternating_06.mp3	20	2.887	[(None, 0.0), (20, 2.244), (20, 2.887)]	13.8092227565	1593.05579589	3137.79950667	1607.31792243	2019_Mar_27_0855	Sound Switch 12-20-2018	318-laptop	bpl	HP
68	beautiful	1	119	0.8	9	../stimuli/combined/switch-0.8_chunk-500_C_G_alternating_09.mp3	20	2.742	[(None, 0.0), (20, 2.142), (20, 2.742)]	13.6678912364	1606.72738928	3151.47110085	1620.98951622	2019_Mar_27_0855	Sound Switch 12-20-2018	318-laptop	bpl	HP
68	beautiful	1	120	0.8	11	../stimuli/combined/switch-0.8_chunk-500_C_G_alternating_11.mp3	12	2.028	[(None, 0.0), (12, 1.151), (12, 2.028)]	12.9693084474	1619.7007788	3164.44448957	1633.96290613	2019_Mar_27_0855	Sound Switch 12-20-2018	318-laptop	bpl	HP
68	beautiful	1	121	0.1	8	../stimuli/combined/switch-0.1_chunk-500_C_G_alternating_08.mp3	20	3.96	[(None, 0.0), (12, 1.461), (13, 1.636), (20, 3.039), (20, 3.96)]	14.8732424138	1634.6075117	3179.35122288	1648.86963824	2019_Mar_27_0855	Sound Switch 12-20-2018	318-laptop	bpl	HP
68	beautiful	1	122	0.4	9	../stimuli/combined/switch-0.4_chunk-500_C_G_alternating_09.mp3	20	2.871	[(None, 0.0), (20, 2.416), (20, 2.87)]	13.7836296705	1648.3962513	3193.13996247	1662.65837784	2019_Mar_27_0855	Sound Switch 12-20-2018	318-laptop	bpl	HP
68	beautiful	1	123	0.3	13	../stimuli/combined/switch-0.3_chunk-500_C_G_alternating_13.mp3	12	2.913	[(None, 0.0), (12, 2.223), (12, 2.913)]	13.8313645787	1662.23143696	3206.97514893	1676.49356429	2019_Mar_27_0855	Sound Switch 12-20-2018	318-laptop	bpl	HP
68	beautiful	1	124	0.2	4	../stimuli/combined/switch-0.2_chunk-500_C_G_alternating_04.mp3	21	5.053	[(None, 0.0), (12, 2.19), (21, 4.366), (21, 5.053)]	15.975998802	1678.2121328	3222.95584358	1692.47425974	2019_Mar_27_0855	Sound Switch 12-20-2018	318-laptop	bpl	HP
68	beautiful	1	125	0.2	8	../stimuli/combined/switch-0.2_chunk-500_C_G_alternating_08.mp3	20	2.975	[(None, 0.0), (20, 1.696), (20, 2.975)]	13.9098827044	1692.12660547	3236.87031664	1706.38873201	2019_Mar_27_0855	Sound Switch 12-20-2018	318-laptop	bpl	HP
68	beautiful	1	126	0.2	17	../stimuli/combined/switch-0.2_chunk-500_C_G_alternating_17.mp3	12	3.422	[(None, 0.0), (12, 2.675), (12, 3.422)]	14.3387682999	1706.46906526	3251.21277643	1720.7311918	2019_Mar_27_0855	Sound Switch 12-20-2018	318-laptop	bpl	HP
68	beautiful	1	127	0.8	18	../stimuli/combined/switch-0.8_chunk-500_C_G_alternating_18.mp3	12	2.412	[(None, 0.0), (12, 1.66), (12, 2.412)]	13.3352083817	1719.80907617	3264.55278695	1734.07120271	2019_Mar_27_0855	Sound Switch 12-20-2018	318-laptop	bpl	HP
68	beautiful	1	128	0.3	19	../stimuli/combined/switch-0.3_chunk-500_C_G_alternating_19.mp3	12	2.566	[(None, 0.0), (12, 1.549), (12, 2.566)]	13.4640051174	1733.27798971	3278.02170049	1747.54011625	2019_Mar_27_0855	Sound Switch 12-20-2018	318-laptop	bpl	HP
68	beautiful	1	129	0.9	0	../stimuli/combined/switch-0.9_chunk-500_C_G_alternating_00.mp3	19	2.98	[(None, 0.0), (19, 1.667), (19, 2.98)]	13.8871837807	1747.16989542	3291.91360659	1761.43202196	2019_Mar_27_0855	Sound Switch 12-20-2018	318-laptop	bpl	HP
68	beautiful	1	130	0.4	11	../stimuli/combined/switch-0.4_chunk-500_C_G_alternating_11.mp3	12	2.486	[(None, 0.0), (12, 1.787), (12, 2.486)]	13.4178960765	1760.59285124	3305.33656241	1774.85497778	2019_Mar_27_0855	Sound Switch 12-20-2018	318-laptop	bpl	HP
68	beautiful	1	131	0.6	16	../stimuli/combined/switch-0.6_chunk-500_C_G_alternating_16.mp3	12	1.87	[(None, 0.0), (12, 1.009), (12, 1.87)]	12.7828177247	1773.38164457	3318.12535574	1787.64377151	2019_Mar_27_0855	Sound Switch 12-20-2018	318-laptop	bpl	HP
68	beautiful	1	132	0.1	3	../stimuli/combined/switch-0.1_chunk-500_C_G_alternating_03.mp3	20	1.697	[(None, 0.0), (20, 1.117), (20, 1.697)]	12.6107338054	1786.03096141	3330.77467258	1800.29308874	2019_Mar_27_0855	Sound Switch 12-20-2018	318-laptop	bpl	HP
68	beautiful	1	133	0.8	13	../stimuli/combined/switch-0.8_chunk-500_C_G_alternating_13.mp3	12	2.204	[(None, 0.0), (12, 1.484), (12, 2.204)]	13.1166673318	1799.15234672	3343.89605789	1813.41447366	2019_Mar_27_0855	Sound Switch 12-20-2018	318-laptop	bpl	HP
68	beautiful	1	134	0.7	17	../stimuli/combined/switch-0.7_chunk-500_C_G_alternating_17.mp3	12	2.704	[(None, 0.0), (13, 0.882), (12, 2.118), (12, 2.704)]	13.6234890597	1812.77980701	3357.52351778	1827.04193355	2019_Mar_27_0855	Sound Switch 12-20-2018	318-laptop	bpl	HP
68	beautiful	1	135	0.1	0	../stimuli/combined/switch-0.1_chunk-500_C_G_alternating_00.mp3	20	1.946	[(None, 0.0), (19, 1.184), (20, 1.264), (20, 1.946)]	12.8728002886	1825.65635094	3370.40006251	1839.91847787	2019_Mar_27_0855	Sound Switch 12-20-2018	318-laptop	bpl	HP
68	beautiful	1	136	0.9	5	../stimuli/combined/switch-0.9_chunk-500_C_G_alternating_05.mp3	20	2.615	[(None, 0.0), (19, 1.364), (20, 1.912), (20, 2.615)]	13.5416792936	1839.20297974	3383.94669092	1853.46510707	2019_Mar_27_0855	Sound Switch 12-20-2018	318-laptop	bpl	HP
68	beautiful	1	137	0.7	2	../stimuli/combined/switch-0.7_chunk-500_C_G_alternating_02.mp3	20	1.619	[(None, 0.0), (20, 0.945), (20, 1.619)]	12.5266075243	1851.73562925	3396.47934003	1865.99775539	2019_Mar_27_0855	Sound Switch 12-20-2018	318-laptop	bpl	HP
68	beautiful	1	138	0.1	17	../stimuli/combined/switch-0.1_chunk-500_C_G_alternating_17.mp3	12	2.104	[(None, 0.0), (12, 1.399), (12, 2.104)]	13.0258815144	1864.76647568	3409.51018725	1879.02860262	2019_Mar_27_0855	Sound Switch 12-20-2018	318-laptop	bpl	HP
68	beautiful	1	139	0.3	12	../stimuli/combined/switch-0.3_chunk-500_C_G_alternating_12.mp3	12	1.928	[(None, 0.0), (12, 1.208), (12, 1.928)]	12.8329896557	1877.61478129	3422.35849246	1891.87690783	2019_Mar_27_0855	Sound Switch 12-20-2018	318-laptop	bpl	HP
68	beautiful	1	140	0.6	1	../stimuli/combined/switch-0.6_chunk-500_C_G_alternating_01.mp3	20	2.318	[(None, 0.0), (20, 1.629), (20, 2.318)]	13.2349771253	1890.85450247	3435.59821325	1905.11662901	2019_Mar_27_0855	Sound Switch 12-20-2018	318-laptop	bpl	HP
68	beautiful	1	141	0.4	13	../stimuli/combined/switch-0.4_chunk-500_C_G_alternating_13.mp3	12	1.842	[(None, 0.0), (12, 1.2), (12, 1.842)]	12.7563206329	1903.61479551	3448.35850668	1917.87692205	2019_Mar_27_0855	Sound Switch 12-20-2018	318-laptop	bpl	HP
68	beautiful	1	142	0.5	17	../stimuli/combined/switch-0.5_chunk-500_C_G_alternating_17.mp3	12	2.638	[(None, 0.0), (12, 2.105), (12, 2.638)]	13.5583050206	1917.17696152	3461.92067269	1931.43908846	2019_Mar_27_0855	Sound Switch 12-20-2018	318-laptop	bpl	HP
68	beautiful	1	143	0.2	11	../stimuli/combined/switch-0.2_chunk-500_C_G_alternating_11.mp3	12	2.432	[(None, 0.0), (12, 1.883), (12, 2.432)]	13.3453582973	1930.52737601	3475.27108679	1944.78950215	2019_Mar_27_0855	Sound Switch 12-20-2018	318-laptop	bpl	HP
68	beautiful	1	144	0.5	14	../stimuli/combined/switch-0.5_chunk-500_C_G_alternating_14.mp3	12	1.912	[(None, 0.0), (12, 1.082), (12, 1.912)]	12.8665358598	1943.39857532	3488.14228649	1957.66070186	2019_Mar_27_0855	Sound Switch 12-20-2018	318-laptop	bpl	HP
68	beautiful	1	145	0.6	15	../stimuli/combined/switch-0.6_chunk-500_C_G_alternating_15.mp3	12	2.694	[(None, 0.0), (12, 2.083), (12, 2.694)]	13.6065243305	1957.01009658	3501.75380735	1971.27222272	2019_Mar_27_0855	Sound Switch 12-20-2018	318-laptop	bpl	HP
68	beautiful	1	146	0.4	8	../stimuli/combined/switch-0.4_chunk-500_C_G_alternating_08.mp3	20	6.552	[(None, 0.0), (20, 5.848), (20, 6.552)]	17.4828766352	1974.50710462	3519.25081659	1988.76923274	2019_Mar_27_0855	Sound Switch 12-20-2018	318-laptop	bpl	HP
68	beautiful	1	147	0.3	7	../stimuli/combined/switch-0.3_chunk-500_C_G_alternating_07.mp3	20	2.324	[(None, 0.0), (20, 1.634), (20, 2.324)]	13.2469149021	1987.75913577	3532.50284774	2002.0212635	2019_Mar_27_0855	Sound Switch 12-20-2018	318-laptop	bpl	HP
68	beautiful	1	148	0.4	14	../stimuli/combined/switch-0.4_chunk-500_C_G_alternating_14.mp3	21	2.205	[(None, 0.0), (21, 1.443), (21, 2.205)]	13.1411296201	2000.90512284	3545.64883402	2015.16724899	2019_Mar_27_0855	Sound Switch 12-20-2018	318-laptop	bpl	HP
68	beautiful	1	149	0.7	10	../stimuli/combined/switch-0.7_chunk-500_C_G_alternating_10.mp3	12	2.145	[(None, 0.0), (12, 1.424), (12, 2.145)]	13.0704342271	2013.97955279	3558.72326357	2028.24167933	2019_Mar_27_0855	Sound Switch 12-20-2018	318-laptop	bpl	HP
68	beautiful	1	150	0.1	14	../stimuli/combined/switch-0.1_chunk-500_C_G_alternating_14.mp3	12	2.621	[(None, 0.0), (12, 1.978), (12, 2.621)]	13.5454494091	2027.53035156	3572.27406234	2041.7924781	2019_Mar_27_0855	Sound Switch 12-20-2018	318-laptop	bpl	HP
68	beautiful	1	151	0.9	18	../stimuli/combined/switch-0.9_chunk-500_C_G_alternating_18.mp3	12	2.049	[(None, 0.0), (12, 1.141), (12, 2.049)]	12.9793271873	2040.51460772	3585.25831928	2054.77673505	2019_Mar_27_0855	Sound Switch 12-20-2018	318-laptop	bpl	HP
68	beautiful	1	152	0.4	5	../stimuli/combined/switch-0.4_chunk-500_C_G_alternating_05.mp3	20	1.815	[(None, 0.0), (20, 1.282), (20, 1.815)]	12.7399058933	2053.25924463	3598.0029554	2067.52137117	2019_Mar_27_0855	Sound Switch 12-20-2018	318-laptop	bpl	HP
68	beautiful	1	153	0.8	0	../stimuli/combined/switch-0.8_chunk-500_C_G_alternating_00.mp3	21	1.657	[(None, 0.0), (21, 1.067), (21, 1.657)]	12.5796787539	2065.84386854	3610.58758011	2080.10599666	2019_Mar_27_0855	Sound Switch 12-20-2018	318-laptop	bpl	HP
68	beautiful	1	154	0.6	18	../stimuli/combined/switch-0.6_chunk-500_C_G_alternating_18.mp3	12	1.935	[(None, 0.0), (12, 1.246), (12, 1.935)]	12.8578513977	2078.70639722	3623.4501084	2092.96852416	2019_Mar_27_0855	Sound Switch 12-20-2018	318-laptop	bpl	HP
68	beautiful	1	155	0.3	10	../stimuli/combined/switch-0.3_chunk-500_C_G_alternating_10.mp3	12	1.96	[(None, 0.0), (12, 1.13), (12, 1.96)]	12.8721274206	2091.58234494	3636.32605611	2105.84447148	2019_Mar_27_0855	Sound Switch 12-20-2018	318-laptop	bpl	HP
68	beautiful	1	156	0.3	9	../stimuli/combined/switch-0.3_chunk-500_C_G_alternating_09.mp3	20	2.028	[(None, 0.0), (20, 1.37), (20, 2.028)]	12.9306511331	2104.51777134	3649.26148251	2118.77989788	2019_Mar_27_0855	Sound Switch 12-20-2018	318-laptop	bpl	HP
68	beautiful	1	157	0.5	12	../stimuli/combined/switch-0.5_chunk-500_C_G_alternating_12.mp3	12	1.462	[(None, 0.0), (12, 0.881), (12, 1.462)]	12.3855375654	2116.90802175	3661.65173292	2131.17014829	2019_Mar_27_0855	Sound Switch 12-20-2018	318-laptop	bpl	HP
68	beautiful	1	158	0.3	15	../stimuli/combined/switch-0.3_chunk-500_C_G_alternating_15.mp3	12	1.558	[(None, 0.0), (12, 0.931), (12, 1.558)]	12.4813969578	2129.39328681	3674.13699798	2143.65541335	2019_Mar_27_0855	Sound Switch 12-20-2018	318-laptop	bpl	HP
68	beautiful	1	159	0.2	19	../stimuli/combined/switch-0.2_chunk-500_C_G_alternating_19.mp3	12	2.335	[(None, 0.0), (12, 1.645), (12, 2.335)]	13.2580747125	2142.65608345	3687.39979423	2156.91820959	2019_Mar_27_0855	Sound Switch 12-20-2018	318-laptop	bpl	HP
68	beautiful	1	160	0.1	12	../stimuli/combined/switch-0.1_chunk-500_C_G_alternating_12.mp3	12	2.817	[(None, 0.0), (12, 2.268), (12, 2.817)]	13.7335786424	2156.40091041	3701.14462158	2170.66303695	2019_Mar_27_0855	Sound Switch 12-20-2018	318-laptop	bpl	HP
68	beautiful	1	161	0.5	7	../stimuli/combined/switch-0.5_chunk-500_C_G_alternating_07.mp3	20	2.294	[(None, 0.0), (20, 1.511), (20, 2.294)]	13.216423669	2169.62206154	3714.36577231	2183.88418808	2019_Mar_27_0855	Sound Switch 12-20-2018	318-laptop	bpl	HP
68	beautiful	1	162	0.4	0	../stimuli/combined/switch-0.4_chunk-500_C_G_alternating_00.mp3	20	1.834	[(None, 0.0), (20, 1.223), (20, 1.834)]	12.7571404809	2182.38396227	3727.12767345	2196.64608921	2019_Mar_27_0855	Sound Switch 12-20-2018	318-laptop	bpl	HP
68	beautiful	1	163	0.2	7	../stimuli/combined/switch-0.2_chunk-500_C_G_alternating_07.mp3	21	3.67	[(None, 0.0), (21, 2.978), (21, 3.67)]	14.5916773774	2196.980925	3741.72463618	2211.24305154	2019_Mar_27_0855	Sound Switch 12-20-2018	318-laptop	bpl	HP
68	beautiful	1	164	0.7	14	../stimuli/combined/switch-0.7_chunk-500_C_G_alternating_14.mp3	12	6.196	[(None, 0.0), (12, 2.299), (12, 6.196)]	17.1211249342	2214.10601049	3758.84972167	2228.36813743	2019_Mar_27_0855	Sound Switch 12-20-2018	318-laptop	bpl	HP
68	beautiful	1	165	0.5	3	../stimuli/combined/switch-0.5_chunk-500_C_G_alternating_03.mp3	19	3.275	[(None, 0.0), (19, 2.32), (19, 3.275)]	14.2003771696	2228.31108352	3773.05479469	2242.57321005	2019_Mar_27_0855	Sound Switch 12-20-2018	318-laptop	bpl	HP
68	beautiful	1	166	0.9	6	../stimuli/combined/switch-0.9_chunk-500_C_G_alternating_06.mp3	19	2.582	[(None, 0.0), (19, 1.098), (19, 2.582)]	13.4981992977	2241.86829883	3786.61201	2256.13042576	2019_Mar_27_0855	Sound Switch 12-20-2018	318-laptop	bpl	HP
68	beautiful	1	167	0.8	15	../stimuli/combined/switch-0.8_chunk-500_C_G_alternating_15.mp3	12	1.932	[(None, 0.0), (12, 1.102), (12, 1.932)]	12.8438428626	2254.71719117	3799.46090234	2268.97931849	2019_Mar_27_0855	Sound Switch 12-20-2018	318-laptop	bpl	HP
68	beautiful	1	168	0.7	19	../stimuli/combined/switch-0.7_chunk-500_C_G_alternating_19.mp3	12	2.001	[(None, 0.0), (12, 1.395), (12, 2.001)]	12.9194518121	2267.64201288	3812.38572406	2281.90413942	2019_Mar_27_0855	Sound Switch 12-20-2018	318-laptop	bpl	HP
68	beautiful	1	169	0.8	4	../stimuli/combined/switch-0.8_chunk-500_C_G_alternating_04.mp3	19	2.041	[(None, 0.0), (19, 1.336), (19, 2.041)]	12.9635888717	2280.6106532	3825.35436438	2294.87278014	2019_Mar_27_0855	Sound Switch 12-20-2018	318-laptop	bpl	HP
68	beautiful	1	170	0.6	14	../stimuli/combined/switch-0.6_chunk-500_C_G_alternating_14.mp3	12	1.942	[(None, 0.0), (12, 1.331), (12, 1.942)]	12.8562049849	2293.47192347	3838.21563661	2307.73405277	2019_Mar_27_0855	Sound Switch 12-20-2018	318-laptop	bpl	HP
68	beautiful	1	171	0.1	19	../stimuli/combined/switch-0.1_chunk-500_C_G_alternating_19.mp3	12	2.443	[(None, 0.0), (12, 1.863), (12, 2.443)]	13.3597299361	2306.83668233	3851.5803935	2321.09880926	2019_Mar_27_0855	Sound Switch 12-20-2018	318-laptop	bpl	HP
68	beautiful	1	172	0.5	4	../stimuli/combined/switch-0.5_chunk-500_C_G_alternating_04.mp3	20	1.697	[(None, 0.0), (20, 1.039), (20, 1.697)]	12.6153296954	2319.45579676	3864.19950754	2333.7179233	2019_Mar_27_0855	Sound Switch 12-20-2018	318-laptop	bpl	HP
68	beautiful	1	173	0.6	8	../stimuli/combined/switch-0.6_chunk-500_C_G_alternating_08.mp3	20	1.615	[(None, 0.0), (20, 1.098), (20, 1.615)]	12.5333132882	2331.99398686	3876.73769803	2346.2561134	2019_Mar_27_0855	Sound Switch 12-20-2018	318-laptop	bpl	HP
68	beautiful	1	174	0.9	2	../stimuli/combined/switch-0.9_chunk-500_C_G_alternating_02.mp3	20	2.573	[(None, 0.0), (20, 1.868), (20, 2.572)]	13.4954070733	2345.49396809	3890.23767927	2359.75609503	2019_Mar_27_0855	Sound Switch 12-20-2018	318-laptop	bpl	HP
68	beautiful	1	175	0.5	8	../stimuli/combined/switch-0.5_chunk-500_C_G_alternating_08.mp3	19	1.606	[(None, 0.0), (19, 0.917), (19, 1.606)]	12.5145496348	2358.01321951	3902.75693068	2372.27534604	2019_Mar_27_0855	Sound Switch 12-20-2018	318-laptop	bpl	HP
68	beautiful	1	176	0.3	2	../stimuli/combined/switch-0.3_chunk-500_C_G_alternating_02.mp3	19	2.071	[(None, 0.0), (19, 1.211), (19, 2.071)]	13.0105418622	2371.0287172	3915.77242837	2385.29084414	2019_Mar_27_0855	Sound Switch 12-20-2018	318-laptop	bpl	HP
68	beautiful	1	177	0.8	1	../stimuli/combined/switch-0.8_chunk-500_C_G_alternating_01.mp3	21	1.494	[(None, 0.0), (21, 0.943), (21, 1.494)]	12.4160197111	2383.44843077	3928.19214194	2397.71055731	2019_Mar_27_0855	Sound Switch 12-20-2018	318-laptop	bpl	HP
68	beautiful	1	178	0.6	2	../stimuli/combined/switch-0.6_chunk-500_C_G_alternating_02.mp3	21	1.108	[(None, 0.0), (21, 0.544), (21, 1.108)]	12.0338919231	2395.48706754	3940.2307799	2409.74919566	2019_Mar_27_0855	Sound Switch 12-20-2018	318-laptop	bpl	HP
68	beautiful	1	179	0.7	3	../stimuli/combined/switch-0.7_chunk-500_C_G_alternating_03.mp3	21	1.766	[(None, 0.0), (21, 1.109), (21, 1.766)]	12.6778451787	2408.16968009	3952.91339086	2422.43180623	2019_Mar_27_0855	Sound Switch 12-20-2018	318-laptop	bpl	HP
68	beautiful	1	180	0.5	1	../stimuli/combined/switch-0.5_chunk-500_C_G_alternating_01.mp3	21	1.601	[(None, 0.0), (21, 1.036), (21, 1.601)]	12.5164425946	2420.69172767	3965.43543924	2434.953855	2019_Mar_27_0855	Sound Switch 12-20-2018	318-laptop	bpl	HP
68	beautiful	2	181	0.6	19	../stimuli/combined/switch-0.6_chunk-500_C_G_alternating_19.mp3	12	1.467	[(None, 0.0), (12, 0.933), (12, 1.467)]	12.3954966442	12.3961335574	3981.08509864	2450.60351401	2019_Mar_27_0855	Sound Switch 12-20-2018	318-laptop	bpl	HP
68	beautiful	2	182	0.4	2	../stimuli/combined/switch-0.4_chunk-500_C_G_alternating_02.mp3	20	1.431	[(None, 0.0), (20, 0.944), (20, 1.431)]	12.370502146	24.7718029188	3993.46076721	2462.97918297	2019_Mar_27_0855	Sound Switch 12-20-2018	318-laptop	bpl	HP
68	beautiful	2	183	0.7	2	../stimuli/combined/switch-0.7_chunk-500_C_G_alternating_02.mp3	20	1.857	[(None, 0.0), (20, 1.244), (20, 1.857)]	12.7817469835	37.5573291052	4006.2462934	2475.76470916	2019_Mar_27_0855	Sound Switch 12-20-2018	318-laptop	bpl	HP
68	beautiful	2	184	0.5	1	../stimuli/combined/switch-0.5_chunk-500_C_G_alternating_01.mp3	20	1.68	[(None, 0.0), (20, 1.179), (20, 1.68)]	12.5945134587	50.1561267141	4018.8450918	2488.36350716	2019_Mar_27_0855	Sound Switch 12-20-2018	318-laptop	bpl	HP
68	beautiful	2	185	0.3	14	../stimuli/combined/switch-0.3_chunk-500_C_G_alternating_14.mp3	12	2.084	[(None, 0.0), (12, 1.223), (12, 2.084)]	12.9904502526	63.1512791407	4031.84024383	2501.35865919	2019_Mar_27_0855	Sound Switch 12-20-2018	318-laptop	bpl	HP
68	beautiful	2	186	0.7	15	../stimuli/combined/switch-0.7_chunk-500_C_G_alternating_15.mp3	12	1.569	[(None, 0.0), (12, 1.005), (12, 1.569)]	12.4920668348	75.6481168981	4044.33708159	2513.85549735	2019_Mar_27_0855	Sound Switch 12-20-2018	318-laptop	bpl	HP
68	beautiful	2	187	0.4	18	../stimuli/combined/switch-0.4_chunk-500_C_G_alternating_18.mp3	12	3.753	[(None, 0.0), (13, 1.098), (12, 3.004), (12, 3.753)]	14.6782197406	90.3753576216	4059.0643227	2528.58273847	2019_Mar_27_0855	Sound Switch 12-20-2018	318-laptop	bpl	HP
68	beautiful	2	188	0.2	0	../stimuli/combined/switch-0.2_chunk-500_C_G_alternating_00.mp3	20	1.888	[(None, 0.0), (20, 1.292), (20, 1.888)]	12.804923197	103.184498591	4071.87346288	2541.39187944	2019_Mar_27_0855	Sound Switch 12-20-2018	318-laptop	bpl	HP
68	beautiful	2	189	0.1	7	../stimuli/combined/switch-0.1_chunk-500_C_G_alternating_07.mp3	20	2.412	[(None, 0.0), (20, 1.847), (20, 2.412)]	13.3352775255	116.524780152	4085.21374524	2554.732161	2019_Mar_27_0855	Sound Switch 12-20-2018	318-laptop	bpl	HP
68	beautiful	2	190	0.8	18	../stimuli/combined/switch-0.8_chunk-500_C_G_alternating_18.mp3	12	2.322	[(None, 0.0), (12, 1.289), (12, 2.322)]	13.2339111253	129.763400959	4098.45236525	2567.97078062	2019_Mar_27_0855	Sound Switch 12-20-2018	318-laptop	bpl	HP
68	beautiful	2	191	0.5	8	../stimuli/combined/switch-0.5_chunk-500_C_G_alternating_08.mp3	20	2.101	[(None, 0.0), (20, 1.475), (20, 2.101)]	13.0181666461	142.786397793	4111.47536248	2580.99377824	2019_Mar_27_0855	Sound Switch 12-20-2018	318-laptop	bpl	HP
68	beautiful	2	192	0.3	16	../stimuli/combined/switch-0.3_chunk-500_C_G_alternating_16.mp3	12	2.604	[(None, 0.0), (12, 1.431), (12, 2.604)]	13.5449361645	156.335102888	4125.02406797	2594.54248373	2019_Mar_27_0855	Sound Switch 12-20-2018	318-laptop	bpl	HP
68	beautiful	2	193	0.9	19	../stimuli/combined/switch-0.9_chunk-500_C_G_alternating_19.mp3	12	2.18	[(None, 0.0), (12, 1.132), (12, 2.18)]	13.1021238211	169.442212965	4138.13117726	2607.64959262	2019_Mar_27_0855	Sound Switch 12-20-2018	318-laptop	bpl	HP
68	beautiful	2	194	0.8	0	../stimuli/combined/switch-0.8_chunk-500_C_G_alternating_00.mp3	20	1.928	[(None, 0.0), (20, 1.239), (20, 1.928)]	12.8352753524	182.282172317	4150.97113661	2620.48955237	2019_Mar_27_0855	Sound Switch 12-20-2018	318-laptop	bpl	HP
68	beautiful	2	195	0.4	3	../stimuli/combined/switch-0.4_chunk-500_C_G_alternating_03.mp3	20	1.655	[(None, 0.0), (20, 1.059), (20, 1.655)]	12.5778450602	194.864686757	4163.55365144	2633.07206681	2019_Mar_27_0855	Sound Switch 12-20-2018	318-laptop	bpl	HP
68	beautiful	2	196	0.2	11	../stimuli/combined/switch-0.2_chunk-500_C_G_alternating_11.mp3	12	2.349	[(None, 0.0), (12, 1.504), (12, 2.349)]	13.2725644885	208.141250523	4176.83021521	2646.34863058	2019_Mar_27_0855	Sound Switch 12-20-2018	318-laptop	bpl	HP
68	beautiful	2	197	0.6	3	../stimuli/combined/switch-0.6_chunk-500_C_G_alternating_03.mp3	21	2.82	[(None, 0.0), (21, 2.162), (21, 2.82)]	13.7489368646	221.894916824	4190.58388151	2660.10229688	2019_Mar_27_0855	Sound Switch 12-20-2018	318-laptop	bpl	HP
68	beautiful	2	198	0.6	10	../stimuli/combined/switch-0.6_chunk-500_C_G_alternating_10.mp3	12	4.42	[(None, 0.0), (13, 1.614), (12, 3.484), (12, 4.42)]	15.3325275775	237.231938354	4205.92090265	2675.43931841	2019_Mar_27_0855	Sound Switch 12-20-2018	318-laptop	bpl	HP
68	beautiful	2	199	0.9	4	../stimuli/combined/switch-0.9_chunk-500_C_G_alternating_04.mp3	20	3.132	[(None, 0.0), (20, 2.365), (20, 3.132)]	14.0488277754	251.285556412	4219.9745215	2689.49293765	2019_Mar_27_0855	Sound Switch 12-20-2018	318-laptop	bpl	HP
68	beautiful	2	200	0.1	2	../stimuli/combined/switch-0.1_chunk-500_C_G_alternating_02.mp3	20	1.71	[(None, 0.0), (20, 1.098), (20, 1.71)]	12.6338100568	263.923661287	4232.61262558	2702.13104134	2019_Mar_27_0855	Sound Switch 12-20-2018	318-laptop	bpl	HP
