Subject ID	Condition	Block #	Trial #	Switch Rate	Exemplar	File Name	Rating	RT	Rating History	Trial Duration	Block Duration	Session Duration	Experiment Duration	Start Date	Experiment	Testing Location	Experimenter Initials	Subject Initials
27	patterned	1	1	0.5	13	../stimuli/combined/switch-0.5_chunk-500_C_G_alternating_13.mp3	66	6.147	[(None, 0.0), (66, 5.38), (66, 6.147)]	17.0319507437	17.0323296563	2885.55052319	37.531093943	2019_Feb_26_1320	Sound Switch 12-20-2018	318-laptop	bpl	AK
27	patterned	1	2	0.7	11	../stimuli/combined/switch-0.7_chunk-500_C_G_alternating_11.mp3	41	4.039	[(None, 0.0), (41, 2.959), (41, 4.039)]	14.962721169	32.0008487009	2900.51904223	52.4996133828	2019_Feb_26_1320	Sound Switch 12-20-2018	318-laptop	bpl	AK
27	patterned	1	3	0.1	16	../stimuli/combined/switch-0.1_chunk-500_C_G_alternating_16.mp3	83	6.257	[(None, 0.0), (83, 5.237), (83, 6.257)]	17.1839673764	49.1903915048	2917.70858504	69.6891561866	2019_Feb_26_1320	Sound Switch 12-20-2018	318-laptop	bpl	AK
27	patterned	1	4	0.3	14	../stimuli/combined/switch-0.3_chunk-500_C_G_alternating_14.mp3	74	4.4	[(None, 0.0), (74, 3.567), (74, 4.4)]	15.3227777806	64.5188336131	2933.03702675	85.0175978999	2019_Feb_26_1320	Sound Switch 12-20-2018	318-laptop	bpl	AK
27	patterned	1	5	0.9	6	../stimuli/combined/switch-0.9_chunk-500_C_G_alternating_06.mp3	83	8.295	[(None, 0.0), (83, 7.511), (83, 8.295)]	19.2194456814	83.7426275037	2952.26082104	104.24139179	2019_Feb_26_1320	Sound Switch 12-20-2018	318-laptop	bpl	AK
27	patterned	1	6	0.2	10	../stimuli/combined/switch-0.2_chunk-500_C_G_alternating_10.mp3	76	3.865	[(None, 0.0), (76, 2.94), (76, 3.865)]	14.7887351156	98.5367653828	2967.05495891	119.035530065	2019_Feb_26_1320	Sound Switch 12-20-2018	318-laptop	bpl	AK
27	patterned	1	7	0.6	7	../stimuli/combined/switch-0.6_chunk-500_C_G_alternating_07.mp3	16	5.036	[(None, 0.0), (16, 4.359), (16, 5.036)]	15.9428600667	114.483940864	2983.0021344	134.982705941	2019_Feb_26_1320	Sound Switch 12-20-2018	318-laptop	bpl	AK
27	patterned	1	8	0.6	8	../stimuli/combined/switch-0.6_chunk-500_C_G_alternating_08.mp3	36	4.915	[(None, 0.0), (36, 3.315), (36, 4.915)]	15.858392992	130.346708538	2998.86490246	150.845473615	2019_Feb_26_1320	Sound Switch 12-20-2018	318-laptop	bpl	AK
27	patterned	1	9	0.2	7	../stimuli/combined/switch-0.2_chunk-500_C_G_alternating_07.mp3	38	8.507	[(None, 0.0), (38, 7.524), (38, 8.507)]	19.4264279452	149.777378407	3018.29557154	170.276143089	2019_Feb_26_1320	Sound Switch 12-20-2018	318-laptop	bpl	AK
27	patterned	1	10	0.1	9	../stimuli/combined/switch-0.1_chunk-500_C_G_alternating_09.mp3	82	2.5	[(None, 0.0), (82, 1.617), (82, 2.5)]	13.4272193548	163.209077544	3031.72727187	183.707843016	2019_Feb_26_1320	Sound Switch 12-20-2018	318-laptop	bpl	AK
27	patterned	1	11	0.6	18	../stimuli/combined/switch-0.6_chunk-500_C_G_alternating_18.mp3	68	2.394	[(None, 0.0), (68, 1.719), (68, 2.394)]	13.3051944999	176.517569649	3045.03576318	197.016334726	2019_Feb_26_1320	Sound Switch 12-20-2018	318-laptop	bpl	AK
27	patterned	1	12	0.7	0	../stimuli/combined/switch-0.7_chunk-500_C_G_alternating_00.mp3	68	4.148	[(None, 0.0), (68, 1.566), (68, 4.148)]	15.0733434824	191.59576985	3060.11396338	212.094534532	2019_Feb_26_1320	Sound Switch 12-20-2018	318-laptop	bpl	AK
27	patterned	1	13	0.7	6	../stimuli/combined/switch-0.7_chunk-500_C_G_alternating_06.mp3	29	3.215	[(None, 0.0), (29, 2.306), (29, 3.214)]	14.1400826654	205.741356428	3074.25954996	226.24012111	2019_Feb_26_1320	Sound Switch 12-20-2018	318-laptop	bpl	AK
27	patterned	1	14	0.6	9	../stimuli/combined/switch-0.6_chunk-500_C_G_alternating_09.mp3	60	4.536	[(None, 0.0), (60, 3.752), (60, 4.536)]	15.4587493041	221.205457131	3089.72365066	241.704221418	2019_Feb_26_1320	Sound Switch 12-20-2018	318-laptop	bpl	AK
27	patterned	1	15	0.5	15	../stimuli/combined/switch-0.5_chunk-500_C_G_alternating_15.mp3	90	1.889	[(None, 0.0), (90, 1.262), (90, 1.888)]	12.831218759	234.042030055	3102.56022319	254.540794341	2019_Feb_26_1320	Sound Switch 12-20-2018	318-laptop	bpl	AK
27	patterned	1	16	0.1	2	../stimuli/combined/switch-0.1_chunk-500_C_G_alternating_02.mp3	88	3.125	[(None, 0.0), (88, 2.358), (88, 3.125)]	14.0501369656	248.097455596	3116.61564913	268.596220278	2019_Feb_26_1320	Sound Switch 12-20-2018	318-laptop	bpl	AK
27	patterned	1	17	0.6	12	../stimuli/combined/switch-0.6_chunk-500_C_G_alternating_12.mp3	81	2.882	[(None, 0.0), (81, 2.224), (81, 2.882)]	13.806563761	261.909530382	3130.42772391	282.408294668	2019_Feb_26_1320	Sound Switch 12-20-2018	318-laptop	bpl	AK
27	patterned	1	18	0.7	13	../stimuli/combined/switch-0.7_chunk-500_C_G_alternating_13.mp3	69	4.418	[(None, 0.0), (69, 3.822), (69, 4.418)]	15.3567507083	277.271903931	3145.79009746	297.770668613	2019_Feb_26_1320	Sound Switch 12-20-2018	318-laptop	bpl	AK
27	patterned	1	19	0.2	19	../stimuli/combined/switch-0.2_chunk-500_C_G_alternating_19.mp3	30	7.317	[(None, 0.0), (30, 6.609), (30, 7.317)]	18.2400669794	295.517298602	3164.03549174	316.016062889	2019_Feb_26_1320	Sound Switch 12-20-2018	318-laptop	bpl	AK
27	patterned	1	20	0.5	14	../stimuli/combined/switch-0.5_chunk-500_C_G_alternating_14.mp3	23	2.487	[(None, 0.0), (23, 1.498), (23, 2.487)]	13.4149538884	308.937741389	3177.45593532	329.436506466	2019_Feb_26_1320	Sound Switch 12-20-2018	318-laptop	bpl	AK
27	patterned	1	21	0.7	5	../stimuli/combined/switch-0.7_chunk-500_C_G_alternating_05.mp3	63	4.351	[(None, 0.0), (63, 3.565), (63, 4.351)]	15.2771134845	324.219875168	3192.7380687	344.71863985	2019_Feb_26_1320	Sound Switch 12-20-2018	318-laptop	bpl	AK
27	patterned	1	22	0.8	5	../stimuli/combined/switch-0.8_chunk-500_C_G_alternating_05.mp3	58	3.934	[(None, 0.0), (58, 3.104), (58, 3.934)]	14.8487613432	339.080113334	3207.59830687	359.578877621	2019_Feb_26_1320	Sound Switch 12-20-2018	318-laptop	bpl	AK
27	patterned	1	23	0.1	13	../stimuli/combined/switch-0.1_chunk-500_C_G_alternating_13.mp3	99	3.065	[(None, 0.0), (99, 2.257), (99, 3.065)]	13.9892146237	353.074857552	3221.59305227	373.573623419	2019_Feb_26_1320	Sound Switch 12-20-2018	318-laptop	bpl	AK
27	patterned	1	24	0.3	7	../stimuli/combined/switch-0.3_chunk-500_C_G_alternating_07.mp3	36	2.916	[(None, 0.0), (36, 2.289), (36, 2.916)]	13.829453793	366.908505066	3235.4266986	387.407269747	2019_Feb_26_1320	Sound Switch 12-20-2018	318-laptop	bpl	AK
27	patterned	1	25	0.6	10	../stimuli/combined/switch-0.6_chunk-500_C_G_alternating_10.mp3	69	3.662	[(None, 0.0), (69, 2.909), (69, 3.662)]	14.5768218522	381.490777095	3250.00897023	401.989540986	2019_Feb_26_1320	Sound Switch 12-20-2018	318-laptop	bpl	AK
27	patterned	1	26	0.5	11	../stimuli/combined/switch-0.5_chunk-500_C_G_alternating_11.mp3	68	3.8	[(None, 0.0), (68, 3.03), (68, 3.8)]	14.7251809317	396.221273075	3264.73946661	416.720037362	2019_Feb_26_1320	Sound Switch 12-20-2018	318-laptop	bpl	AK
27	patterned	1	27	0.7	12	../stimuli/combined/switch-0.7_chunk-500_C_G_alternating_12.mp3	41	11.854	[(None, 0.0), (41, 2.307), (41, 11.854)]	22.7709906291	419.002699801	3287.52089333	439.501464088	2019_Feb_26_1320	Sound Switch 12-20-2018	318-laptop	bpl	AK
27	patterned	1	28	0.2	4	../stimuli/combined/switch-0.2_chunk-500_C_G_alternating_04.mp3	41	4.155	[(None, 0.0), (41, 3.059), (41, 4.155)]	15.0766663756	434.084953853	3302.60314738	454.58371893	2019_Feb_26_1320	Sound Switch 12-20-2018	318-laptop	bpl	AK
27	patterned	1	29	0.4	19	../stimuli/combined/switch-0.4_chunk-500_C_G_alternating_19.mp3	25	2.992	[(None, 0.0), (25, 2.161), (25, 2.992)]	13.9165475733	448.005599924	3316.52379346	468.504364211	2019_Feb_26_1320	Sound Switch 12-20-2018	318-laptop	bpl	AK
27	patterned	1	30	0.1	15	../stimuli/combined/switch-0.1_chunk-500_C_G_alternating_15.mp3	57	2.74	[(None, 0.0), (57, 2.141), (57, 2.739)]	13.662539852	461.67366779	3330.19186132	482.172433658	2019_Feb_26_1320	Sound Switch 12-20-2018	318-laptop	bpl	AK
27	patterned	1	31	0.3	10	../stimuli/combined/switch-0.3_chunk-500_C_G_alternating_10.mp3	62	3.556	[(None, 0.0), (62, 2.819), (62, 3.555)]	14.4809467045	476.160152387	3344.67834552	496.658916674	2019_Feb_26_1320	Sound Switch 12-20-2018	318-laptop	bpl	AK
27	patterned	1	32	0.7	1	../stimuli/combined/switch-0.7_chunk-500_C_G_alternating_01.mp3	65	3.151	[(None, 0.0), (65, 1.943), (65, 3.151)]	14.0567349434	490.222913186	3358.74110632	510.721677472	2019_Feb_26_1320	Sound Switch 12-20-2018	318-laptop	bpl	AK
27	patterned	1	33	0.9	15	../stimuli/combined/switch-0.9_chunk-500_C_G_alternating_15.mp3	81	2.802	[(None, 0.0), (81, 1.923), (81, 2.802)]	13.723074984	503.954430926	3372.47262406	524.453196003	2019_Feb_26_1320	Sound Switch 12-20-2018	318-laptop	bpl	AK
27	patterned	1	34	0.5	18	../stimuli/combined/switch-0.5_chunk-500_C_G_alternating_18.mp3	20	5.195	[(None, 0.0), (20, 4.318), (20, 5.195)]	16.1356182932	520.095357156	3388.61355069	540.594121442	2019_Feb_26_1320	Sound Switch 12-20-2018	318-laptop	bpl	AK
27	patterned	1	35	0.5	5	../stimuli/combined/switch-0.5_chunk-500_C_G_alternating_05.mp3	94	3.137	[(None, 0.0), (94, 2.307), (94, 3.137)]	14.058439062	534.159415898	3402.67760943	554.658180185	2019_Feb_26_1320	Sound Switch 12-20-2018	318-laptop	bpl	AK
27	patterned	1	36	0.8	15	../stimuli/combined/switch-0.8_chunk-500_C_G_alternating_15.mp3	38	6.059	[(None, 0.0), (43, 3.995), (38, 5.091), (38, 6.059)]	16.9794438955	551.143632353	3419.66182549	571.642397035	2019_Feb_26_1320	Sound Switch 12-20-2018	318-laptop	bpl	AK
27	patterned	1	37	0.2	3	../stimuli/combined/switch-0.2_chunk-500_C_G_alternating_03.mp3	70	3.807	[(None, 0.0), (70, 2.586), (70, 3.807)]	14.7311811048	565.879762632	3434.39795616	586.378527709	2019_Feb_26_1320	Sound Switch 12-20-2018	318-laptop	bpl	AK
27	patterned	1	38	0.3	5	../stimuli/combined/switch-0.3_chunk-500_C_G_alternating_05.mp3	31	5.258	[(None, 0.0), (31, 4.348), (31, 5.258)]	16.16659311	582.051366555	3450.56955969	602.550131632	2019_Feb_26_1320	Sound Switch 12-20-2018	318-laptop	bpl	AK
27	patterned	1	39	0.9	18	../stimuli/combined/switch-0.9_chunk-500_C_G_alternating_18.mp3	84	3.303	[(None, 0.0), (84, 2.548), (84, 3.303)]	14.229027546	596.286112954	3464.80430649	616.784877636	2019_Feb_26_1320	Sound Switch 12-20-2018	318-laptop	bpl	AK
27	patterned	1	40	0.4	18	../stimuli/combined/switch-0.4_chunk-500_C_G_alternating_18.mp3	21	2.712	[(None, 0.0), (21, 1.817), (21, 2.712)]	13.6195627136	609.910033359	3478.42822689	630.408797646	2019_Feb_26_1320	Sound Switch 12-20-2018	318-laptop	bpl	AK
27	patterned	1	41	0.6	14	../stimuli/combined/switch-0.6_chunk-500_C_G_alternating_14.mp3	18	3.654	[(None, 0.0), (18, 1.773), (18, 3.654)]	14.5617009104	624.477024426	3492.99521756	644.975788713	2019_Feb_26_1320	Sound Switch 12-20-2018	318-laptop	bpl	AK
27	patterned	1	42	0.5	1	../stimuli/combined/switch-0.5_chunk-500_C_G_alternating_01.mp3	37	3.334	[(None, 0.0), (37, 2.597), (37, 3.334)]	14.2408449552	638.722999122	3507.24119226	659.221764199	2019_Feb_26_1320	Sound Switch 12-20-2018	318-laptop	bpl	AK
27	patterned	1	43	0.8	13	../stimuli/combined/switch-0.8_chunk-500_C_G_alternating_13.mp3	71	3.549	[(None, 0.0), (71, 2.837), (71, 3.549)]	14.4583723671	653.186717357	3521.70491089	673.685482039	2019_Feb_26_1320	Sound Switch 12-20-2018	318-laptop	bpl	AK
27	patterned	1	44	0.4	7	../stimuli/combined/switch-0.4_chunk-500_C_G_alternating_07.mp3	11	4.594	[(None, 0.0), (11, 3.699), (11, 4.594)]	15.4993470772	668.691554122	3537.20974765	689.190318409	2019_Feb_26_1320	Sound Switch 12-20-2018	318-laptop	bpl	AK
27	patterned	1	45	0.8	16	../stimuli/combined/switch-0.8_chunk-500_C_G_alternating_16.mp3	24	6.1	[(None, 0.0), (24, 2.97), (24, 6.1)]	17.0092752576	685.706382681	3554.2245774	706.205149734	2019_Feb_26_1320	Sound Switch 12-20-2018	318-laptop	bpl	AK
27	patterned	1	46	0.6	17	../stimuli/combined/switch-0.6_chunk-500_C_G_alternating_17.mp3	15	2.168	[(None, 0.0), (16, 1.229), (15, 1.278), (15, 2.168)]	13.0903949422	698.801989548	3567.32018268	719.300753439	2019_Feb_26_1320	Sound Switch 12-20-2018	318-laptop	bpl	AK
27	patterned	1	47	0.3	0	../stimuli/combined/switch-0.3_chunk-500_C_G_alternating_00.mp3	15	4.598	[(None, 0.0), (15, 3.936), (15, 4.598)]	15.6161015312	714.423673223	3582.94186675	734.92243751	2019_Feb_26_1320	Sound Switch 12-20-2018	318-laptop	bpl	AK
27	patterned	1	48	0.2	8	../stimuli/combined/switch-0.2_chunk-500_C_G_alternating_08.mp3	36	3.013	[(None, 0.0), (36, 1.98), (36, 3.013)]	13.9200285113	728.347859105	3596.86605224	748.846622996	2019_Feb_26_1320	Sound Switch 12-20-2018	318-laptop	bpl	AK
27	patterned	1	49	0.9	3	../stimuli/combined/switch-0.9_chunk-500_C_G_alternating_03.mp3	73	3.702	[(None, 0.0), (72, 2.532), (73, 2.581), (73, 3.702)]	14.6137209805	742.966119924	3611.48431346	763.464885001	2019_Feb_26_1320	Sound Switch 12-20-2018	318-laptop	bpl	AK
27	patterned	1	50	0.4	5	../stimuli/combined/switch-0.4_chunk-500_C_G_alternating_05.mp3	16	2.058	[(None, 0.0), (16, 1.307), (16, 2.058)]	12.9692349878	755.940675097	3624.45886863	776.439440174	2019_Feb_26_1320	Sound Switch 12-20-2018	318-laptop	bpl	AK
27	patterned	1	51	0.1	17	../stimuli/combined/switch-0.1_chunk-500_C_G_alternating_17.mp3	99	3.07	[(None, 0.0), (99, 2.177), (99, 3.069)]	13.9941278433	769.940163821	3638.45835735	790.438928503	2019_Feb_26_1320	Sound Switch 12-20-2018	318-laptop	bpl	AK
27	patterned	1	52	0.1	10	../stimuli/combined/switch-0.1_chunk-500_C_G_alternating_10.mp3	86	5.633	[(None, 0.0), (86, 4.865), (86, 5.633)]	16.557915736	786.50340804	3655.02160118	807.002172327	2019_Feb_26_1320	Sound Switch 12-20-2018	318-laptop	bpl	AK
27	patterned	1	53	0.6	2	../stimuli/combined/switch-0.6_chunk-500_C_G_alternating_02.mp3	39	3.947	[(None, 0.0), (39, 2.913), (39, 3.947)]	14.8713416072	801.379201376	3669.8973957	821.877967243	2019_Feb_26_1320	Sound Switch 12-20-2018	318-laptop	bpl	AK
27	patterned	1	54	0.3	2	../stimuli/combined/switch-0.3_chunk-500_C_G_alternating_02.mp3	32	3.217	[(None, 0.0), (32, 2.34), (32, 3.217)]	14.1391426936	815.523815187	3684.04200832	836.022579079	2019_Feb_26_1320	Sound Switch 12-20-2018	318-laptop	bpl	AK
27	patterned	1	55	0.9	5	../stimuli/combined/switch-0.9_chunk-500_C_G_alternating_05.mp3	25	3.398	[(None, 0.0), (24, 2.645), (25, 2.773), (25, 3.398)]	14.3197840159	829.849214537	3698.36740846	850.347979614	2019_Feb_26_1320	Sound Switch 12-20-2018	318-laptop	bpl	AK
27	patterned	1	56	0.3	15	../stimuli/combined/switch-0.3_chunk-500_C_G_alternating_15.mp3	32	2.434	[(None, 0.0), (32, 1.79), (32, 2.434)]	13.3543958399	843.208068822	3711.72626235	863.706833899	2019_Feb_26_1320	Sound Switch 12-20-2018	318-laptop	bpl	AK
27	patterned	1	57	0.5	9	../stimuli/combined/switch-0.5_chunk-500_C_G_alternating_09.mp3	36	5.37	[(None, 0.0), (36, 4.336), (36, 5.37)]	16.2928899174	859.506287222	3728.02448075	880.005051509	2019_Feb_26_1320	Sound Switch 12-20-2018	318-laptop	bpl	AK
27	patterned	1	58	0.9	9	../stimuli/combined/switch-0.9_chunk-500_C_G_alternating_09.mp3	87	3.212	[(None, 0.0), (87, 2.49), (87, 3.212)]	14.1358881548	873.647526381	3742.16571991	894.146291063	2019_Feb_26_1320	Sound Switch 12-20-2018	318-laptop	bpl	AK
27	patterned	1	59	0.6	4	../stimuli/combined/switch-0.6_chunk-500_C_G_alternating_04.mp3	76	6.928	[(None, 0.0), (76, 6.222), (76, 6.928)]	17.851575727	891.504408859	3760.02260239	912.003173541	2019_Feb_26_1320	Sound Switch 12-20-2018	318-laptop	bpl	AK
27	patterned	1	60	0.9	2	../stimuli/combined/switch-0.9_chunk-500_C_G_alternating_02.mp3	81	2.668	[(None, 0.0), (81, 1.839), (81, 2.668)]	13.5936919556	905.103366869	3773.62156001	925.602130761	2019_Feb_26_1320	Sound Switch 12-20-2018	318-laptop	bpl	AK
27	patterned	1	61	0.4	6	../stimuli/combined/switch-0.4_chunk-500_C_G_alternating_06.mp3	57	2.411	[(None, 0.0), (57, 1.671), (57, 2.411)]	13.3351281961	918.442859869	3786.9610538	938.941624551	2019_Feb_26_1320	Sound Switch 12-20-2018	318-laptop	bpl	AK
27	patterned	1	62	0.1	5	../stimuli/combined/switch-0.1_chunk-500_C_G_alternating_05.mp3	81	3.182	[(None, 0.0), (81, 2.397), (81, 3.182)]	14.0877741634	932.534939965	3801.05313389	953.033704647	2019_Feb_26_1320	Sound Switch 12-20-2018	318-laptop	bpl	AK
27	patterned	1	63	0.4	8	../stimuli/combined/switch-0.4_chunk-500_C_G_alternating_08.mp3	35	7.15	[(None, 0.0), (28, 3.552), (35, 6.492), (35, 7.15)]	18.0905917081	950.630164758	3819.14835829	971.12893023	2019_Feb_26_1320	Sound Switch 12-20-2018	318-laptop	bpl	AK
27	patterned	1	64	0.2	14	../stimuli/combined/switch-0.2_chunk-500_C_G_alternating_14.mp3	68	5.447	[(None, 0.0), (68, 4.789), (68, 5.447)]	16.3708909818	967.00669241	3835.52488634	987.505458277	2019_Feb_26_1320	Sound Switch 12-20-2018	318-laptop	bpl	AK
27	patterned	1	65	0.1	6	../stimuli/combined/switch-0.1_chunk-500_C_G_alternating_06.mp3	61	3.511	[(None, 0.0), (61, 2.681), (61, 3.511)]	14.4345087788	981.44682561	3849.96501875	1001.9455899	2019_Feb_26_1320	Sound Switch 12-20-2018	318-laptop	bpl	AK
27	patterned	1	66	0.7	9	../stimuli/combined/switch-0.7_chunk-500_C_G_alternating_09.mp3	71	2.96	[(None, 0.0), (71, 1.911), (71, 2.96)]	13.8827860306	995.334942493	3863.85313563	1015.83370678	2019_Feb_26_1320	Sound Switch 12-20-2018	318-laptop	bpl	AK
27	patterned	1	67	0.6	6	../stimuli/combined/switch-0.6_chunk-500_C_G_alternating_06.mp3	35	4.544	[(None, 0.0), (52, 2.433), (35, 3.997), (35, 4.544)]	15.4660873269	1010.80659181	3879.32478495	1031.3053561	2019_Feb_26_1320	Sound Switch 12-20-2018	318-laptop	bpl	AK
27	patterned	1	68	0.4	15	../stimuli/combined/switch-0.4_chunk-500_C_G_alternating_15.mp3	35	5.91	[(None, 0.0), (35, 5.359), (35, 5.91)]	16.8335993097	1027.64553541	3896.16372894	1048.1442997	2019_Feb_26_1320	Sound Switch 12-20-2018	318-laptop	bpl	AK
27	patterned	1	69	0.7	16	../stimuli/combined/switch-0.7_chunk-500_C_G_alternating_16.mp3	57	3.622	[(None, 0.0), (57, 2.853), (57, 3.622)]	14.5446929129	1042.19586578	3910.71405932	1062.69463047	2019_Feb_26_1320	Sound Switch 12-20-2018	318-laptop	bpl	AK
27	patterned	1	70	0.8	9	../stimuli/combined/switch-0.8_chunk-500_C_G_alternating_09.mp3	55	4.938	[(None, 0.0), (55, 4.296), (55, 4.938)]	15.8651237274	1058.06664199	3926.58483512	1078.56540627	2019_Feb_26_1320	Sound Switch 12-20-2018	318-laptop	bpl	AK
27	patterned	1	71	0.6	13	../stimuli/combined/switch-0.6_chunk-500_C_G_alternating_13.mp3	23	3.522	[(None, 0.0), (23, 2.517), (23, 3.522)]	14.4466387217	1072.51878501	3941.03697815	1093.0175493	2019_Feb_26_1320	Sound Switch 12-20-2018	318-laptop	bpl	AK
27	patterned	1	72	0.9	7	../stimuli/combined/switch-0.9_chunk-500_C_G_alternating_07.mp3	65	6.264	[(None, 0.0), (65, 4.262), (65, 6.264)]	17.188532107	1089.71176016	3958.22995369	1110.21052444	2019_Feb_26_1320	Sound Switch 12-20-2018	318-laptop	bpl	AK
27	patterned	1	73	0.5	6	../stimuli/combined/switch-0.5_chunk-500_C_G_alternating_06.mp3	15	3.681	[(None, 0.0), (15, 2.757), (15, 3.681)]	14.6019545408	1104.3190823	3972.83727583	1124.81784816	2019_Feb_26_1320	Sound Switch 12-20-2018	318-laptop	bpl	AK
27	patterned	1	74	0.3	12	../stimuli/combined/switch-0.3_chunk-500_C_G_alternating_12.mp3	27	5.43	[(None, 0.0), (27, 4.335), (27, 5.43)]	16.3684693395	1120.69215311	3989.21034664	1141.19091819	2019_Feb_26_1320	Sound Switch 12-20-2018	318-laptop	bpl	AK
27	patterned	1	75	0.2	5	../stimuli/combined/switch-0.2_chunk-500_C_G_alternating_05.mp3	22	3.202	[(None, 0.0), (22, 2.293), (22, 3.202)]	14.1246843548	1134.82249863	4003.34069217	1155.32126332	2019_Feb_26_1320	Sound Switch 12-20-2018	318-laptop	bpl	AK
27	patterned	1	76	0.5	10	../stimuli/combined/switch-0.5_chunk-500_C_G_alternating_10.mp3	16	2.882	[(None, 0.0), (16, 1.943), (16, 2.882)]	13.8077040547	1148.63554026	4017.15373419	1169.13430534	2019_Feb_26_1320	Sound Switch 12-20-2018	318-laptop	bpl	AK
27	patterned	1	77	0.5	7	../stimuli/combined/switch-0.5_chunk-500_C_G_alternating_07.mp3	32	8.835	[(None, 0.0), (32, 7.708), (32, 8.835)]	19.7586165069	1168.39942005	4036.91761359	1188.89818513	2019_Feb_26_1320	Sound Switch 12-20-2018	318-laptop	bpl	AK
27	patterned	1	78	0.9	13	../stimuli/combined/switch-0.9_chunk-500_C_G_alternating_13.mp3	96	3.9	[(None, 0.0), (96, 2.96), (96, 3.9)]	14.8230924875	1183.22751861	4051.74571293	1203.72628369	2019_Feb_26_1320	Sound Switch 12-20-2018	318-laptop	bpl	AK
27	patterned	1	79	0.2	1	../stimuli/combined/switch-0.2_chunk-500_C_G_alternating_01.mp3	64	3.262	[(None, 0.0), (64, 2.603), (64, 3.262)]	14.1850796171	1197.41794686	4065.93614039	1217.91671154	2019_Feb_26_1320	Sound Switch 12-20-2018	318-laptop	bpl	AK
27	patterned	1	80	0.4	16	../stimuli/combined/switch-0.4_chunk-500_C_G_alternating_16.mp3	26	3.094	[(None, 0.0), (26, 2.324), (26, 3.094)]	14.0176623032	1211.44088233	4079.95907547	1231.93964662	2019_Feb_26_1320	Sound Switch 12-20-2018	318-laptop	bpl	AK
27	patterned	1	81	0.7	14	../stimuli/combined/switch-0.7_chunk-500_C_G_alternating_14.mp3	65	3.168	[(None, 0.0), (65, 2.522), (65, 3.168)]	14.0900831988	1225.53624937	4094.0544429	1246.03501444	2019_Feb_26_1320	Sound Switch 12-20-2018	318-laptop	bpl	AK
27	patterned	1	82	0.3	16	../stimuli/combined/switch-0.3_chunk-500_C_G_alternating_16.mp3	41	2.335	[(None, 0.0), (41, 1.551), (41, 2.335)]	13.2597660857	1238.80142335	4107.31961688	1259.30018803	2019_Feb_26_1320	Sound Switch 12-20-2018	318-laptop	bpl	AK
27	patterned	1	83	0.8	2	../stimuli/combined/switch-0.8_chunk-500_C_G_alternating_02.mp3	63	3.331	[(None, 0.0), (63, 2.353), (63, 3.331)]	14.2543052407	1253.06133484	4121.57952837	1273.56009992	2019_Feb_26_1320	Sound Switch 12-20-2018	318-laptop	bpl	AK
27	patterned	1	84	0.8	19	../stimuli/combined/switch-0.8_chunk-500_C_G_alternating_19.mp3	35	3.059	[(None, 0.0), (35, 2.089), (35, 3.059)]	13.9994579061	1267.06610424	4135.58429777	1287.56486852	2019_Feb_26_1320	Sound Switch 12-20-2018	318-laptop	bpl	AK
27	patterned	1	85	0.7	18	../stimuli/combined/switch-0.7_chunk-500_C_G_alternating_18.mp3	27	3.431	[(None, 0.0), (27, 2.678), (27, 3.431)]	14.3576389204	1281.4292364	4149.94742993	1301.92800108	2019_Feb_26_1320	Sound Switch 12-20-2018	318-laptop	bpl	AK
27	patterned	1	86	0.2	18	../stimuli/combined/switch-0.2_chunk-500_C_G_alternating_18.mp3	31	8.024	[(None, 0.0), (31, 7.035), (31, 8.024)]	18.9459458926	1300.38102758	4168.89922072	1320.87979187	2019_Feb_26_1320	Sound Switch 12-20-2018	318-laptop	bpl	AK
27	patterned	1	87	0.5	12	../stimuli/combined/switch-0.5_chunk-500_C_G_alternating_12.mp3	60	5.121	[(None, 0.0), (60, 4.353), (60, 5.121)]	16.0420976188	1316.42729996	4184.94549349	1336.92606424	2019_Feb_26_1320	Sound Switch 12-20-2018	318-laptop	bpl	AK
27	patterned	1	88	0.6	16	../stimuli/combined/switch-0.6_chunk-500_C_G_alternating_16.mp3	69	3.604	[(None, 0.0), (69, 2.774), (69, 3.604)]	14.5282546672	1330.96009367	4199.4782872	1351.45885796	2019_Feb_26_1320	Sound Switch 12-20-2018	318-laptop	bpl	AK
27	patterned	1	89	0.8	0	../stimuli/combined/switch-0.8_chunk-500_C_G_alternating_00.mp3	65	5.274	[(None, 0.0), (71, 1.943), (65, 4.696), (65, 5.274)]	16.1957097143	1347.16136301	4215.67955654	1367.66012769	2019_Feb_26_1320	Sound Switch 12-20-2018	318-laptop	bpl	AK
27	patterned	1	90	0.5	8	../stimuli/combined/switch-0.5_chunk-500_C_G_alternating_08.mp3	60	6.057	[(None, 0.0), (60, 2.37), (60, 6.057)]	16.9655557035	1364.13240919	4232.65060312	1384.63117427	2019_Feb_26_1320	Sound Switch 12-20-2018	318-laptop	bpl	AK
27	patterned	1	91	0.6	0	../stimuli/combined/switch-0.6_chunk-500_C_G_alternating_00.mp3	63	2.884	[(None, 0.0), (63, 2.273), (63, 2.884)]	13.8085100835	1377.94670135	4246.46489488	1398.44546603	2019_Feb_26_1320	Sound Switch 12-20-2018	318-laptop	bpl	AK
27	patterned	1	92	0.2	13	../stimuli/combined/switch-0.2_chunk-500_C_G_alternating_13.mp3	75	7.678	[(None, 0.0), (75, 3.207), (75, 7.678)]	18.6008430903	1396.55307561	4265.07126875	1417.05184029	2019_Feb_26_1320	Sound Switch 12-20-2018	318-laptop	bpl	AK
27	patterned	1	93	0.9	19	../stimuli/combined/switch-0.9_chunk-500_C_G_alternating_19.mp3	99	4.426	[(None, 0.0), (98, 1.986), (99, 3.331), (99, 4.426)]	15.3698478858	1411.92747638	4280.44566991	1432.42624106	2019_Feb_26_1320	Sound Switch 12-20-2018	318-laptop	bpl	AK
27	patterned	1	94	0.5	3	../stimuli/combined/switch-0.5_chunk-500_C_G_alternating_03.mp3	76	9.448	[(None, 0.0), (76, 3.776), (76, 9.447)]	20.370345332	1432.30342084	4300.82161437	1452.80218552	2019_Feb_26_1320	Sound Switch 12-20-2018	318-laptop	bpl	AK
27	patterned	1	95	0.1	0	../stimuli/combined/switch-0.1_chunk-500_C_G_alternating_00.mp3	100	4.569	[(None, 0.0), (98, 1.568), (99, 2.554), (100, 3.444), (100, 4.569)]	15.48100123	1447.78872682	4316.30692114	1468.28749229	2019_Feb_26_1320	Sound Switch 12-20-2018	318-laptop	bpl	AK
27	patterned	1	96	0.3	4	../stimuli/combined/switch-0.3_chunk-500_C_G_alternating_04.mp3	54	3.854	[(None, 0.0), (54, 3.117), (54, 3.854)]	14.7765289161	1462.57093429	4331.08912861	1483.06969976	2019_Feb_26_1320	Sound Switch 12-20-2018	318-laptop	bpl	AK
27	patterned	1	97	0.1	14	../stimuli/combined/switch-0.1_chunk-500_C_G_alternating_14.mp3	79	2.617	[(None, 0.0), (79, 1.646), (79, 2.617)]	13.5475495737	1476.12195334	4344.64014687	1496.62071802	2019_Feb_26_1320	Sound Switch 12-20-2018	318-laptop	bpl	AK
27	patterned	1	98	0.2	16	../stimuli/combined/switch-0.2_chunk-500_C_G_alternating_16.mp3	67	4.69	[(None, 0.0), (67, 2.826), (67, 4.69)]	15.6120571632	1491.74013711	4360.25833064	1512.23890179	2019_Feb_26_1320	Sound Switch 12-20-2018	318-laptop	bpl	AK
27	patterned	1	99	0.9	4	../stimuli/combined/switch-0.9_chunk-500_C_G_alternating_04.mp3	38	4.806	[(None, 0.0), (38, 3.71), (38, 4.806)]	15.7295496867	1507.47501054	4375.99320407	1527.97377483	2019_Feb_26_1320	Sound Switch 12-20-2018	318-laptop	bpl	AK
27	patterned	1	100	0.6	1	../stimuli/combined/switch-0.6_chunk-500_C_G_alternating_01.mp3	77	3.212	[(None, 0.0), (76, 2.273), (77, 2.322), (77, 3.212)]	14.1240359758	1521.60445125	4390.12264439	1542.10321633	2019_Feb_26_1320	Sound Switch 12-20-2018	318-laptop	bpl	AK
27	patterned	1	101	0.8	14	../stimuli/combined/switch-0.8_chunk-500_C_G_alternating_14.mp3	58	2.387	[(None, 0.0), (58, 1.746), (58, 2.387)]	13.2983396992	1534.90813524	4403.42632877	1555.40689953	2019_Feb_26_1320	Sound Switch 12-20-2018	318-laptop	bpl	AK
27	patterned	1	102	0.9	1	../stimuli/combined/switch-0.9_chunk-500_C_G_alternating_01.mp3	66	6.004	[(None, 0.0), (66, 5.282), (66, 6.003)]	16.9077867517	1551.81922394	4420.33741748	1572.31798823	2019_Feb_26_1320	Sound Switch 12-20-2018	318-laptop	bpl	AK
27	patterned	1	103	0.8	10	../stimuli/combined/switch-0.8_chunk-500_C_G_alternating_10.mp3	75	2.912	[(None, 0.0), (75, 2.064), (75, 2.912)]	13.8370909157	1565.6616465	4434.17983964	1586.16041079	2019_Feb_26_1320	Sound Switch 12-20-2018	318-laptop	bpl	AK
27	patterned	1	104	0.2	2	../stimuli/combined/switch-0.2_chunk-500_C_G_alternating_02.mp3	36	5.697	[(None, 0.0), (36, 4.991), (36, 5.697)]	16.6208681641	1582.28784987	4450.806043	1602.78661415	2019_Feb_26_1320	Sound Switch 12-20-2018	318-laptop	bpl	AK
27	patterned	1	105	0.8	1	../stimuli/combined/switch-0.8_chunk-500_C_G_alternating_01.mp3	41	6.38	[(None, 0.0), (41, 5.706), (41, 6.38)]	17.2935252577	1599.58570437	4468.1038979	1620.08446866	2019_Feb_26_1320	Sound Switch 12-20-2018	318-laptop	bpl	AK
27	patterned	1	106	0.9	0	../stimuli/combined/switch-0.9_chunk-500_C_G_alternating_00.mp3	88	3.308	[(None, 0.0), (88, 2.649), (88, 3.307)]	14.2308644224	1613.82192928	4482.34012241	1634.32069435	2019_Feb_26_1320	Sound Switch 12-20-2018	318-laptop	bpl	AK
27	patterned	1	107	0.2	17	../stimuli/combined/switch-0.2_chunk-500_C_G_alternating_17.mp3	27	6.026	[(None, 0.0), (27, 5.429), (27, 6.026)]	16.9490949364	1630.77658897	4499.2947825	1651.27535405	2019_Feb_26_1320	Sound Switch 12-20-2018	318-laptop	bpl	AK
27	patterned	1	108	0.1	19	../stimuli/combined/switch-0.1_chunk-500_C_G_alternating_19.mp3	22	15.488	[(None, 0.0), (22, 14.673), (22, 15.488)]	26.4116629994	1657.19392183	4525.71211576	1677.69268691	2019_Feb_26_1320	Sound Switch 12-20-2018	318-laptop	bpl	AK
27	patterned	1	109	0.4	10	../stimuli/combined/switch-0.4_chunk-500_C_G_alternating_10.mp3	26	8.24	[(None, 0.0), (26, 7.391), (26, 8.24)]	19.1663975294	1676.36562137	4544.88381451	1696.86438526	2019_Feb_26_1320	Sound Switch 12-20-2018	318-laptop	bpl	AK
27	patterned	1	110	0.5	16	../stimuli/combined/switch-0.5_chunk-500_C_G_alternating_16.mp3	69	3.546	[(None, 0.0), (69, 2.807), (69, 3.546)]	14.464861689	1690.83481981	4559.35301334	1711.33358449	2019_Feb_26_1320	Sound Switch 12-20-2018	318-laptop	bpl	AK
27	patterned	1	111	0.8	18	../stimuli/combined/switch-0.8_chunk-500_C_G_alternating_18.mp3	79	1.842	[(None, 0.0), (79, 1.224), (79, 1.842)]	12.7758256165	1703.61595929	4572.13415322	1724.11472437	2019_Feb_26_1320	Sound Switch 12-20-2018	318-laptop	bpl	AK
27	patterned	1	112	0.1	1	../stimuli/combined/switch-0.1_chunk-500_C_G_alternating_01.mp3	30	5.667	[(None, 0.0), (30, 5.022), (30, 5.667)]	16.5892564266	1720.21081327	4588.7290068	1740.70957795	2019_Feb_26_1320	Sound Switch 12-20-2018	318-laptop	bpl	AK
27	patterned	1	113	0.7	15	../stimuli/combined/switch-0.7_chunk-500_C_G_alternating_15.mp3	68	3.74	[(None, 0.0), (68, 3.051), (68, 3.74)]	14.6643858159	1734.88021662	4603.39840975	1755.3789809	2019_Feb_26_1320	Sound Switch 12-20-2018	318-laptop	bpl	AK
27	patterned	1	114	0.2	12	../stimuli/combined/switch-0.2_chunk-500_C_G_alternating_12.mp3	21	2.732	[(None, 0.0), (21, 1.87), (21, 2.732)]	13.6437230311	1748.52793581	4617.04612895	1769.0266997	2019_Feb_26_1320	Sound Switch 12-20-2018	318-laptop	bpl	AK
27	patterned	1	115	0.8	3	../stimuli/combined/switch-0.8_chunk-500_C_G_alternating_03.mp3	35	3.908	[(None, 0.0), (35, 3.283), (35, 3.908)]	14.8154869737	1763.34786345	4631.86605698	1783.84662774	2019_Feb_26_1320	Sound Switch 12-20-2018	318-laptop	bpl	AK
27	patterned	1	116	0.9	17	../stimuli/combined/switch-0.9_chunk-500_C_G_alternating_17.mp3	63	4.56	[(None, 0.0), (63, 3.98), (63, 4.56)]	15.4815923178	1778.83507071	4647.35326384	1799.33383499	2019_Feb_26_1320	Sound Switch 12-20-2018	318-laptop	bpl	AK
27	patterned	1	117	0.7	8	../stimuli/combined/switch-0.7_chunk-500_C_G_alternating_08.mp3	39	6.71	[(None, 0.0), (39, 5.77), (39, 6.71)]	17.6340763681	1796.47442538	4664.99261891	1816.97319006	2019_Feb_26_1320	Sound Switch 12-20-2018	318-laptop	bpl	AK
27	patterned	1	118	0.5	4	../stimuli/combined/switch-0.5_chunk-500_C_G_alternating_04.mp3	39	2.167	[(None, 0.0), (39, 1.366), (39, 2.167)]	13.0746619717	1809.55358491	4678.07177844	1830.0523492	2019_Feb_26_1320	Sound Switch 12-20-2018	318-laptop	bpl	AK
27	patterned	1	119	0.5	2	../stimuli/combined/switch-0.5_chunk-500_C_G_alternating_02.mp3	31	2.148	[(None, 0.0), (31, 1.473), (31, 2.148)]	13.0886157523	1822.64704355	4691.16523709	1843.14580863	2019_Feb_26_1320	Sound Switch 12-20-2018	318-laptop	bpl	AK
27	patterned	1	120	0.1	11	../stimuli/combined/switch-0.1_chunk-500_C_G_alternating_11.mp3	26	14.598	[(None, 0.0), (26, 14.018), (26, 14.598)]	25.5277015102	1848.17836548	4716.69655861	1868.67713016	2019_Feb_26_1320	Sound Switch 12-20-2018	318-laptop	bpl	AK
27	patterned	1	121	0.4	17	../stimuli/combined/switch-0.4_chunk-500_C_G_alternating_17.mp3	34	4.781	[(None, 0.0), (34, 4.216), (34, 4.781)]	15.6983243689	1863.88907068	4732.40726382	1884.38783497	2019_Feb_26_1320	Sound Switch 12-20-2018	318-laptop	bpl	AK
27	patterned	1	122	0.4	2	../stimuli/combined/switch-0.4_chunk-500_C_G_alternating_02.mp3	65	3.117	[(None, 0.0), (65, 2.475), (65, 3.117)]	14.0397968807	1877.93419881	4746.45239234	1898.4329635	2019_Feb_26_1320	Sound Switch 12-20-2018	318-laptop	bpl	AK
27	patterned	1	123	0.4	14	../stimuli/combined/switch-0.4_chunk-500_C_G_alternating_14.mp3	37	5.502	[(None, 0.0), (37, 4.906), (37, 5.502)]	16.4267855217	1894.36654909	4762.88474223	1914.86531338	2019_Feb_26_1320	Sound Switch 12-20-2018	318-laptop	bpl	AK
27	patterned	1	124	0.8	4	../stimuli/combined/switch-0.8_chunk-500_C_G_alternating_04.mp3	64	3.622	[(None, 0.0), (64, 3.105), (64, 3.622)]	14.5293175188	1908.90022312	4777.41841626	1929.39898701	2019_Feb_26_1320	Sound Switch 12-20-2018	318-laptop	bpl	AK
27	patterned	1	125	0.4	11	../stimuli/combined/switch-0.4_chunk-500_C_G_alternating_11.mp3	57	6.228	[(None, 0.0), (57, 5.272), (57, 6.227)]	17.1521359565	1926.05785074	4794.57604427	1946.55661542	2019_Feb_26_1320	Sound Switch 12-20-2018	318-laptop	bpl	AK
27	patterned	1	126	0.7	19	../stimuli/combined/switch-0.7_chunk-500_C_G_alternating_19.mp3	40	9.76	[(None, 0.0), (40, 8.914), (40, 9.76)]	20.6818940254	1946.74700614	4815.26519967	1967.24577082	2019_Feb_26_1320	Sound Switch 12-20-2018	318-laptop	bpl	AK
27	patterned	1	127	0.9	12	../stimuli/combined/switch-0.9_chunk-500_C_G_alternating_12.mp3	33	5.381	[(None, 0.0), (33, 4.816), (33, 5.381)]	16.3048313918	1963.05715613	4831.57534927	1983.55592042	2019_Feb_26_1320	Sound Switch 12-20-2018	318-laptop	bpl	AK
27	patterned	1	128	0.1	8	../stimuli/combined/switch-0.1_chunk-500_C_G_alternating_08.mp3	69	3.416	[(None, 0.0), (69, 2.648), (69, 3.416)]	14.339922882	1977.40164375	4845.91983688	1997.90040764	2019_Feb_26_1320	Sound Switch 12-20-2018	318-laptop	bpl	AK
27	patterned	1	129	0.9	8	../stimuli/combined/switch-0.9_chunk-500_C_G_alternating_08.mp3	59	3.348	[(None, 0.0), (59, 1.061), (59, 3.348)]	14.270181637	1991.67721195	4860.19540508	2012.17597623	2019_Feb_26_1320	Sound Switch 12-20-2018	318-laptop	bpl	AK
27	patterned	1	130	0.2	11	../stimuli/combined/switch-0.2_chunk-500_C_G_alternating_11.mp3	40	5.133	[(None, 0.0), (40, 2.943), (40, 5.133)]	16.0591755511	2007.74198821	4876.26018135	2028.24075289	2019_Feb_26_1320	Sound Switch 12-20-2018	318-laptop	bpl	AK
27	patterned	1	131	0.8	6	../stimuli/combined/switch-0.8_chunk-500_C_G_alternating_06.mp3	74	1.681	[(None, 0.0), (74, 0.975), (74, 1.681)]	12.6050794827	2020.35194417	4888.8701377	2040.85070846	2019_Feb_26_1320	Sound Switch 12-20-2018	318-laptop	bpl	AK
27	patterned	1	132	0.6	19	../stimuli/combined/switch-0.6_chunk-500_C_G_alternating_19.mp3	73	3.118	[(None, 0.0), (73, 2.519), (73, 3.118)]	14.0412133578	2034.3975409	4902.91573483	2054.89630558	2019_Feb_26_1320	Sound Switch 12-20-2018	318-laptop	bpl	AK
27	patterned	1	133	0.6	5	../stimuli/combined/switch-0.6_chunk-500_C_G_alternating_05.mp3	68	4.183	[(None, 0.0), (68, 3.571), (68, 4.183)]	15.0942713875	2049.52415103	4918.04234456	2070.02291571	2019_Feb_26_1320	Sound Switch 12-20-2018	318-laptop	bpl	AK
27	patterned	1	134	0.1	12	../stimuli/combined/switch-0.1_chunk-500_C_G_alternating_12.mp3	58	4.288	[(None, 0.0), (58, 3.77), (58, 4.288)]	15.2272005475	2064.75724033	4933.27543386	2085.25600462	2019_Feb_26_1320	Sound Switch 12-20-2018	318-laptop	bpl	AK
27	patterned	1	135	0.1	7	../stimuli/combined/switch-0.1_chunk-500_C_G_alternating_07.mp3	39	4.148	[(None, 0.0), (39, 2.256), (39, 4.148)]	15.0723126349	2079.83516079	4948.35335393	2100.33392468	2019_Feb_26_1320	Sound Switch 12-20-2018	318-laptop	bpl	AK
27	patterned	1	136	0.4	13	../stimuli/combined/switch-0.4_chunk-500_C_G_alternating_13.mp3	16	1.768	[(None, 0.0), (15, 0.944), (16, 0.993), (16, 1.768)]	12.6904529447	2092.53093708	4961.04913061	2113.02970177	2019_Feb_26_1320	Sound Switch 12-20-2018	318-laptop	bpl	AK
27	patterned	1	137	0.3	19	../stimuli/combined/switch-0.3_chunk-500_C_G_alternating_19.mp3	50	2.834	[(None, 0.0), (50, 2.035), (50, 2.834)]	13.7517735596	2106.28701895	4974.80521248	2126.78578363	2019_Feb_26_1320	Sound Switch 12-20-2018	318-laptop	bpl	AK
27	patterned	1	138	0.3	6	../stimuli/combined/switch-0.3_chunk-500_C_G_alternating_06.mp3	28	2.455	[(None, 0.0), (28, 1.777), (28, 2.455)]	13.373167618	2119.66489156	4988.18308509	2140.16365624	2019_Feb_26_1320	Sound Switch 12-20-2018	318-laptop	bpl	AK
27	patterned	1	139	0.8	11	../stimuli/combined/switch-0.8_chunk-500_C_G_alternating_11.mp3	63	7.274	[(None, 0.0), (63, 4.224), (63, 7.274)]	18.1962225698	2137.8664762	5006.38466973	2158.36524088	2019_Feb_26_1320	Sound Switch 12-20-2018	318-laptop	bpl	AK
27	patterned	1	140	0.3	8	../stimuli/combined/switch-0.3_chunk-500_C_G_alternating_08.mp3	69	4.745	[(None, 0.0), (69, 3.645), (69, 4.745)]	15.6688908846	2153.54120131	5022.05939484	2174.03996559	2019_Feb_26_1320	Sound Switch 12-20-2018	318-laptop	bpl	AK
27	patterned	1	141	0.8	8	../stimuli/combined/switch-0.8_chunk-500_C_G_alternating_08.mp3	58	5.103	[(None, 0.0), (58, 4.132), (58, 5.103)]	16.0248786314	2169.57143015	5038.08962329	2190.07019444	2019_Feb_26_1320	Sound Switch 12-20-2018	318-laptop	bpl	AK
27	patterned	1	142	0.7	10	../stimuli/combined/switch-0.7_chunk-500_C_G_alternating_10.mp3	90	4.493	[(None, 0.0), (90, 3.71), (90, 4.493)]	15.4178690259	2184.99477346	5053.51296699	2205.49353814	2019_Feb_26_1320	Sound Switch 12-20-2018	318-laptop	bpl	AK
27	patterned	1	143	0.9	11	../stimuli/combined/switch-0.9_chunk-500_C_G_alternating_11.mp3	80	4.901	[(None, 0.0), (80, 4.149), (80, 4.901)]	15.8241063452	2200.82414546	5069.34233899	2221.32291054	2019_Feb_26_1320	Sound Switch 12-20-2018	318-laptop	bpl	AK
27	patterned	1	144	0.9	10	../stimuli/combined/switch-0.9_chunk-500_C_G_alternating_10.mp3	91	3.227	[(None, 0.0), (91, 2.365), (91, 3.227)]	14.1506076627	2214.98004684	5083.49824037	2235.47881191	2019_Feb_26_1320	Sound Switch 12-20-2018	318-laptop	bpl	AK
27	patterned	1	145	0.3	11	../stimuli/combined/switch-0.3_chunk-500_C_G_alternating_11.mp3	87	4.634	[(None, 0.0), (87, 3.397), (87, 4.634)]	15.5567683303	2230.54230406	5099.0604976	2251.04106914	2019_Feb_26_1320	Sound Switch 12-20-2018	318-laptop	bpl	AK
27	patterned	1	146	0.2	0	../stimuli/combined/switch-0.2_chunk-500_C_G_alternating_00.mp3	38	5.715	[(None, 0.0), (38, 5.15), (38, 5.715)]	16.6220602175	2247.1688571	5115.68705063	2267.66762218	2019_Feb_26_1320	Sound Switch 12-20-2018	318-laptop	bpl	AK
27	patterned	1	147	0.4	9	../stimuli/combined/switch-0.4_chunk-500_C_G_alternating_09.mp3	36	1.978	[(None, 0.0), (36, 1.398), (36, 1.978)]	12.8849820639	2260.05938891	5128.57758244	2280.55815359	2019_Feb_26_1320	Sound Switch 12-20-2018	318-laptop	bpl	AK
27	patterned	1	148	0.4	1	../stimuli/combined/switch-0.4_chunk-500_C_G_alternating_01.mp3	66	5.082	[(None, 0.0), (66, 2.843), (66, 5.082)]	16.0020731534	2276.0687179	5144.58691144	2296.56748259	2019_Feb_26_1320	Sound Switch 12-20-2018	318-laptop	bpl	AK
27	patterned	1	149	0.3	9	../stimuli/combined/switch-0.3_chunk-500_C_G_alternating_09.mp3	12	4.366	[(None, 0.0), (12, 3.442), (12, 4.366)]	15.2917073468	2291.36679999	5159.88499313	2311.86556428	2019_Feb_26_1320	Sound Switch 12-20-2018	318-laptop	bpl	AK
27	patterned	1	150	0.3	13	../stimuli/combined/switch-0.3_chunk-500_C_G_alternating_13.mp3	47	11.447	[(None, 0.0), (65, 5.931), (47, 10.681), (47, 11.447)]	22.3691833071	2313.74147654	5182.25967007	2334.24024122	2019_Feb_26_1320	Sound Switch 12-20-2018	318-laptop	bpl	AK
27	patterned	1	151	0.1	4	../stimuli/combined/switch-0.1_chunk-500_C_G_alternating_04.mp3	99	2.406	[(None, 0.0), (99, 1.498), (99, 2.405)]	13.3311695675	2327.07821166	5195.59640519	2347.57697674	2019_Feb_26_1320	Sound Switch 12-20-2018	318-laptop	bpl	AK
27	patterned	1	152	0.5	19	../stimuli/combined/switch-0.5_chunk-500_C_G_alternating_19.mp3	38	6.282	[(None, 0.0), (38, 3.545), (38, 6.282)]	17.2057617624	2344.28929519	5212.80748872	2364.78805987	2019_Feb_26_1320	Sound Switch 12-20-2018	318-laptop	bpl	AK
27	patterned	1	153	0.6	11	../stimuli/combined/switch-0.6_chunk-500_C_G_alternating_11.mp3	64	3.944	[(None, 0.0), (64, 2.52), (64, 3.944)]	14.860020854	2359.15413799	5227.67233113	2379.65290346	2019_Feb_26_1320	Sound Switch 12-20-2018	318-laptop	bpl	AK
27	patterned	1	154	0.2	6	../stimuli/combined/switch-0.2_chunk-500_C_G_alternating_06.mp3	37	3.393	[(None, 0.0), (37, 2.655), (37, 3.393)]	14.3014950649	2373.46083708	5241.97903061	2393.95960136	2019_Feb_26_1320	Sound Switch 12-20-2018	318-laptop	bpl	AK
27	patterned	1	155	0.3	3	../stimuli/combined/switch-0.3_chunk-500_C_G_alternating_03.mp3	27	2.996	[(None, 0.0), (27, 2.148), (27, 2.996)]	13.9181900545	2387.38435285	5255.90254638	2407.88311713	2019_Feb_26_1320	Sound Switch 12-20-2018	318-laptop	bpl	AK
27	patterned	1	156	0.9	14	../stimuli/combined/switch-0.9_chunk-500_C_G_alternating_14.mp3	82	4.117	[(None, 0.0), (82, 3.489), (82, 4.117)]	15.0400145875	2402.42972713	5270.94792066	2422.92849221	2019_Feb_26_1320	Sound Switch 12-20-2018	318-laptop	bpl	AK
27	patterned	1	157	0.7	4	../stimuli/combined/switch-0.7_chunk-500_C_G_alternating_04.mp3	37	2.509	[(None, 0.0), (37, 1.476), (37, 2.509)]	13.4343033205	2415.86861533	5284.38680886	2436.36738002	2019_Feb_26_1320	Sound Switch 12-20-2018	318-laptop	bpl	AK
27	patterned	1	158	0.4	3	../stimuli/combined/switch-0.4_chunk-500_C_G_alternating_03.mp3	37	5.295	[(None, 0.0), (37, 4.403), (37, 5.295)]	16.217421917	2432.09133057	5300.6095241	2452.59009525	2019_Feb_26_1320	Sound Switch 12-20-2018	318-laptop	bpl	AK
27	patterned	1	159	0.1	18	../stimuli/combined/switch-0.1_chunk-500_C_G_alternating_18.mp3	33	4.972	[(None, 0.0), (33, 4.063), (33, 4.972)]	15.8962692326	2447.99201162	5316.51020515	2468.4907763	2019_Feb_26_1320	Sound Switch 12-20-2018	318-laptop	bpl	AK
27	patterned	1	160	0.4	4	../stimuli/combined/switch-0.4_chunk-500_C_G_alternating_04.mp3	60	4.747	[(None, 0.0), (60, 4.087), (60, 4.747)]	15.6685285668	2463.66588171	5332.18407485	2484.164646	2019_Feb_26_1320	Sound Switch 12-20-2018	318-laptop	bpl	AK
27	patterned	1	161	0.6	15	../stimuli/combined/switch-0.6_chunk-500_C_G_alternating_15.mp3	40	5.49	[(None, 0.0), (40, 4.737), (40, 5.49)]	16.4136069511	2480.08487957	5348.60307271	2500.58364465	2019_Feb_26_1320	Sound Switch 12-20-2018	318-laptop	bpl	AK
27	patterned	1	162	0.8	7	../stimuli/combined/switch-0.8_chunk-500_C_G_alternating_07.mp3	65	5.99	[(None, 0.0), (65, 5.112), (65, 5.99)]	16.9164171863	2497.00754546	5365.52573938	2517.50631053	2019_Feb_26_1320	Sound Switch 12-20-2018	318-laptop	bpl	AK
27	patterned	1	163	0.3	18	../stimuli/combined/switch-0.3_chunk-500_C_G_alternating_18.mp3	92	5.894	[(None, 0.0), (92, 1.684), (91, 1.811), (90, 4.028), (89, 4.076), (88, 4.106), (87, 4.122), (86, 4.137), (85, 4.168), (84, 4.216), (85, 4.435), (86, 4.466), (87, 4.497), (88, 4.513), (89, 4.528), (90, 4.56), (91, 4.638), (92, 4.762), (92, 5.894)]	16.8171460496	2513.82995717	5382.3481507	2534.32872224	2019_Feb_26_1320	Sound Switch 12-20-2018	318-laptop	bpl	AK
27	patterned	1	164	0.4	0	../stimuli/combined/switch-0.4_chunk-500_C_G_alternating_00.mp3	28	2.742	[(None, 0.0), (28, 2.02), (28, 2.742)]	13.6648457265	2527.50062882	5396.01882235	2547.9993935	2019_Feb_26_1320	Sound Switch 12-20-2018	318-laptop	bpl	AK
27	patterned	1	165	0.8	12	../stimuli/combined/switch-0.8_chunk-500_C_G_alternating_12.mp3	72	3.211	[(None, 0.0), (72, 2.505), (72, 3.211)]	14.1328327526	2541.63922942	5410.15742295	2562.1379941	2019_Feb_26_1320	Sound Switch 12-20-2018	318-laptop	bpl	AK
27	patterned	1	166	0.5	0	../stimuli/combined/switch-0.5_chunk-500_C_G_alternating_00.mp3	75	3.317	[(None, 0.0), (75, 2.722), (75, 3.317)]	14.2245619886	2555.86815977	5424.38635291	2576.36692406	2019_Feb_26_1320	Sound Switch 12-20-2018	318-laptop	bpl	AK
27	patterned	1	167	0.5	17	../stimuli/combined/switch-0.5_chunk-500_C_G_alternating_17.mp3	76	7.308	[(None, 0.0), (76, 6.26), (76, 7.308)]	18.2312654612	2574.10496431	5442.62315784	2594.60372859	2019_Feb_26_1320	Sound Switch 12-20-2018	318-laptop	bpl	AK
27	patterned	1	168	0.7	2	../stimuli/combined/switch-0.7_chunk-500_C_G_alternating_02.mp3	72	3.509	[(None, 0.0), (72, 2.429), (72, 3.509)]	14.4321697149	2588.5431093	5457.06130244	2609.04187359	2019_Feb_26_1320	Sound Switch 12-20-2018	318-laptop	bpl	AK
27	patterned	1	169	0.2	9	../stimuli/combined/switch-0.2_chunk-500_C_G_alternating_09.mp3	74	11.822	[(None, 0.0), (74, 6.9), (74, 11.822)]	22.7283418289	2611.27580527	5479.7939984	2631.77456995	2019_Feb_26_1320	Sound Switch 12-20-2018	318-laptop	bpl	AK
27	patterned	1	170	0.3	17	../stimuli/combined/switch-0.3_chunk-500_C_G_alternating_17.mp3	63	7.136	[(None, 0.0), (28, 4.057), (27, 4.083), (25, 4.106), (63, 5.558), (63, 7.136)]	18.0725911889	2629.35384308	5497.87203661	2649.85260776	2019_Feb_26_1320	Sound Switch 12-20-2018	318-laptop	bpl	AK
27	patterned	1	171	0.9	16	../stimuli/combined/switch-0.9_chunk-500_C_G_alternating_16.mp3	99	4.184	[(None, 0.0), (99, 1.884), (99, 4.184)]	15.1065348783	2644.46575622	5512.98394936	2664.9645213	2019_Feb_26_1320	Sound Switch 12-20-2018	318-laptop	bpl	AK
27	patterned	1	172	0.7	17	../stimuli/combined/switch-0.7_chunk-500_C_G_alternating_17.mp3	40	3.93	[(None, 0.0), (40, 2.739), (40, 3.929)]	14.8536109497	2659.32418794	5527.84238147	2679.82295262	2019_Feb_26_1320	Sound Switch 12-20-2018	318-laptop	bpl	AK
27	patterned	1	173	0.8	17	../stimuli/combined/switch-0.8_chunk-500_C_G_alternating_17.mp3	67	5.037	[(None, 0.0), (66, 3.629), (67, 3.75), (67, 5.037)]	15.9637761184	2675.29353118	5543.81172472	2695.79229547	2019_Feb_26_1320	Sound Switch 12-20-2018	318-laptop	bpl	AK
27	patterned	1	174	0.7	3	../stimuli/combined/switch-0.7_chunk-500_C_G_alternating_03.mp3	14	9.09	[(None, 0.0), (13, 7.994), (14, 8.021), (14, 9.09)]	20.0150170274	2695.3128332	5563.83102673	2715.81159788	2019_Feb_26_1320	Sound Switch 12-20-2018	318-laptop	bpl	AK
27	patterned	1	175	0.1	3	../stimuli/combined/switch-0.1_chunk-500_C_G_alternating_03.mp3	18	2.932	[(None, 0.0), (18, 1.554), (18, 2.932)]	13.8534619924	2709.17165055	5577.68984408	2729.67041483	2019_Feb_26_1320	Sound Switch 12-20-2018	318-laptop	bpl	AK
27	patterned	1	176	0.7	7	../stimuli/combined/switch-0.7_chunk-500_C_G_alternating_07.mp3	35	2.206	[(None, 0.0), (35, 1.547), (35, 2.206)]	13.1294264908	2722.30642093	5590.82461446	2742.80518561	2019_Feb_26_1320	Sound Switch 12-20-2018	318-laptop	bpl	AK
27	patterned	1	177	0.4	12	../stimuli/combined/switch-0.4_chunk-500_C_G_alternating_12.mp3	50	2.498	[(None, 0.0), (50, 1.465), (50, 2.498)]	13.4328094015	2735.74359671	5604.26178985	2756.2423614	2019_Feb_26_1320	Sound Switch 12-20-2018	318-laptop	bpl	AK
27	patterned	1	178	0.6	3	../stimuli/combined/switch-0.6_chunk-500_C_G_alternating_03.mp3	66	5.559	[(None, 0.0), (66, 4.509), (66, 5.558)]	16.4849519563	2752.23427701	5620.75247054	2772.73304208	2019_Feb_26_1320	Sound Switch 12-20-2018	318-laptop	bpl	AK
27	patterned	1	179	0.3	1	../stimuli/combined/switch-0.3_chunk-500_C_G_alternating_01.mp3	33	4.184	[(None, 0.0), (33, 3.229), (33, 4.184)]	15.0920156923	2767.33060258	5635.84879611	2787.82936726	2019_Feb_26_1320	Sound Switch 12-20-2018	318-laptop	bpl	AK
27	patterned	1	180	0.2	15	../stimuli/combined/switch-0.2_chunk-500_C_G_alternating_15.mp3	65	7.191	[(None, 0.0), (65, 5.939), (65, 7.19)]	18.1132095078	2785.44841949	5653.96661302	2805.94718457	2019_Feb_26_1320	Sound Switch 12-20-2018	318-laptop	bpl	AK
27	patterned	2	181	0.1	2	../stimuli/combined/switch-0.1_chunk-500_C_G_alternating_02.mp3	96	5.907	[(None, 0.0), (90, 3.168), (96, 4.217), (96, 5.907)]	16.8255082031	16.8260661015	5682.42306119	2834.40363234	2019_Feb_26_1320	Sound Switch 12-20-2018	318-laptop	bpl	AK
27	patterned	2	182	0.1	7	../stimuli/combined/switch-0.1_chunk-500_C_G_alternating_07.mp3	33	8.384	[(None, 0.0), (33, 3.416), (33, 8.384)]	19.3078674336	36.1392952069	5701.73628951	2853.71686066	2019_Feb_26_1320	Sound Switch 12-20-2018	318-laptop	bpl	AK
27	patterned	2	183	0.4	3	../stimuli/combined/switch-0.4_chunk-500_C_G_alternating_03.mp3	74	6.275	[(None, 0.0), (74, 4.492), (74, 6.275)]	17.1977749655	53.342529832	5718.93952493	2870.92009647	2019_Feb_26_1320	Sound Switch 12-20-2018	318-laptop	bpl	AK
27	patterned	2	184	0.5	1	../stimuli/combined/switch-0.5_chunk-500_C_G_alternating_01.mp3	54	3.323	[(None, 0.0), (54, 2.43), (54, 3.323)]	14.2464180121	67.5933142283	5733.19030932	2885.17088087	2019_Feb_26_1320	Sound Switch 12-20-2018	318-laptop	bpl	AK
27	patterned	2	185	0.8	18	../stimuli/combined/switch-0.8_chunk-500_C_G_alternating_18.mp3	37	3.233	[(None, 0.0), (37, 2.309), (37, 3.233)]	14.1594822767	81.7578448529	5747.35483995	2899.3354107	2019_Feb_26_1320	Sound Switch 12-20-2018	318-laptop	bpl	AK
27	patterned	2	186	0.6	19	../stimuli/combined/switch-0.6_chunk-500_C_G_alternating_19.mp3	38	8.039	[(None, 0.0), (38, 3.363), (38, 8.039)]	18.9649910882	100.72797635	5766.32497184	2918.30554338	2019_Feb_26_1320	Sound Switch 12-20-2018	318-laptop	bpl	AK
27	patterned	2	187	0.3	16	../stimuli/combined/switch-0.3_chunk-500_C_G_alternating_16.mp3	36	3.624	[(None, 0.0), (36, 2.996), (36, 3.624)]	14.54792414	115.281297327	5780.87829282	2932.85886397	2019_Feb_26_1320	Sound Switch 12-20-2018	318-laptop	bpl	AK
27	patterned	2	188	0.7	15	../stimuli/combined/switch-0.7_chunk-500_C_G_alternating_15.mp3	45	13.083	[(None, 0.0), (68, 8.19), (29, 9.881), (45, 12.489), (45, 13.083)]	24.0077098233	139.293799466	5804.89079495	2956.87136571	2019_Feb_26_1320	Sound Switch 12-20-2018	318-laptop	bpl	AK
27	patterned	2	189	0.4	2	../stimuli/combined/switch-0.4_chunk-500_C_G_alternating_02.mp3	34	7.682	[(None, 0.0), (34, 6.759), (34, 7.682)]	18.5891011475	157.887370517	5823.48436561	2975.46493676	2019_Feb_26_1320	Sound Switch 12-20-2018	318-laptop	bpl	AK
27	patterned	2	190	0.7	2	../stimuli/combined/switch-0.7_chunk-500_C_G_alternating_02.mp3	32	13.379	[(None, 0.0), (32, 12.797), (32, 13.378)]	24.3057255306	182.197448603	5847.7944437	2999.77501445	2019_Feb_26_1320	Sound Switch 12-20-2018	318-laptop	bpl	AK
27	patterned	2	191	0.9	4	../stimuli/combined/switch-0.9_chunk-500_C_G_alternating_04.mp3	61	6.216	[(None, 0.0), (61, 5.292), (61, 6.215)]	17.1383990925	199.340175359	5864.93717045	3016.917742	2019_Feb_26_1320	Sound Switch 12-20-2018	318-laptop	bpl	AK
27	patterned	2	192	0.2	0	../stimuli/combined/switch-0.2_chunk-500_C_G_alternating_00.mp3	63	4.085	[(None, 0.0), (63, 3.41), (63, 4.085)]	14.9934415335	214.338131048	5879.93512575	3031.9156969	2019_Feb_26_1320	Sound Switch 12-20-2018	318-laptop	bpl	AK
27	patterned	2	193	0.9	19	../stimuli/combined/switch-0.9_chunk-500_C_G_alternating_19.mp3	99	5.271	[(None, 0.0), (95, 2.971), (97, 3.629), (99, 4.162), (99, 5.271)]	16.1967366107	230.540411083	5896.13740618	3048.11797772	2019_Feb_26_1320	Sound Switch 12-20-2018	318-laptop	bpl	AK
27	patterned	2	194	0.5	8	../stimuli/combined/switch-0.5_chunk-500_C_G_alternating_08.mp3	32	3.261	[(None, 0.0), (32, 2.713), (32, 3.261)]	14.2132937852	244.759048364	5910.35604306	3062.33661421	2019_Feb_26_1320	Sound Switch 12-20-2018	318-laptop	bpl	AK
27	patterned	2	195	0.8	0	../stimuli/combined/switch-0.8_chunk-500_C_G_alternating_00.mp3	27	3.791	[(None, 0.0), (27, 2.773), (27, 3.791)]	14.713826594	259.478184871	5925.07517996	3077.05575151	2019_Feb_26_1320	Sound Switch 12-20-2018	318-laptop	bpl	AK
27	patterned	2	196	0.6	3	../stimuli/combined/switch-0.6_chunk-500_C_G_alternating_03.mp3	31	4.654	[(None, 0.0), (31, 3.865), (31, 4.654)]	15.5958864084	275.078792474	5940.67578757	3092.65635872	2019_Feb_26_1320	Sound Switch 12-20-2018	318-laptop	bpl	AK
27	patterned	2	197	0.6	10	../stimuli/combined/switch-0.6_chunk-500_C_G_alternating_10.mp3	39	5.342	[(None, 0.0), (39, 4.559), (39, 5.342)]	18.8847303774	293.967954824	5959.56494952	3111.54552067	2019_Feb_26_1320	Sound Switch 12-20-2018	318-laptop	bpl	AK
27	patterned	2	198	0.4	18	../stimuli/combined/switch-0.4_chunk-500_C_G_alternating_18.mp3	10	2.89	[(None, 0.0), (10, 1.685), (10, 2.89)]	13.8424008278	307.815262945	5973.41225804	3125.39282919	2019_Feb_26_1320	Sound Switch 12-20-2018	318-laptop	bpl	AK
27	patterned	2	199	0.3	14	../stimuli/combined/switch-0.3_chunk-500_C_G_alternating_14.mp3	24	8.546	[(None, 0.0), (24, 7.764), (24, 8.546)]	19.4825137193	327.302349692	5992.89934321	3144.87991317	2019_Feb_26_1320	Sound Switch 12-20-2018	318-laptop	bpl	AK
27	patterned	2	200	0.2	11	../stimuli/combined/switch-0.2_chunk-500_C_G_alternating_11.mp3	35	2.908	[(None, 0.0), (35, 2.218), (35, 2.907)]	13.7819909464	341.086956281	6006.68395177	3158.66452292	2019_Feb_26_1320	Sound Switch 12-20-2018	318-laptop	bpl	AK
