Subject ID	Condition	Block #	Trial #	Switch Rate	Exemplar	File Name	Rating	RT	Rating History	Trial Duration	Block Duration	Session Duration	Experiment Duration	Start Date	Experiment	Testing Location	Experimenter Initials	Subject Initials
80	beautiful	1	1	0.6	7	../stimuli/combined/switch-0.6_chunk-500_C_G_alternating_07.mp3	56	10.289	[(None, 0.0), (58, 4.02), (57, 4.307), (56, 4.338), (55, 4.478), (56, 4.806), (55, 7.242), (56, 8.337), (56, 10.288)]	21.210115108	21.2110175442	2394.47221196	60.4831510352	2019_Apr_04_0842	Sound Switch 12-20-2018	318-laptop	bpl	JC
80	beautiful	1	2	0.1	0	../stimuli/combined/switch-0.1_chunk-500_C_G_alternating_00.mp3	36	9.805	[(None, 0.0), (46, 1.715), (45, 1.889), (44, 1.92), (43, 1.951), (42, 1.967), (41, 2.684), (40, 2.778), (39, 4.353), (38, 8.869), (37, 9.009), (36, 9.055), (36, 9.805)]	20.7302593082	41.9455515706	2415.20674559	81.2176850616	2019_Apr_04_0842	Sound Switch 12-20-2018	318-laptop	bpl	JC
80	beautiful	1	3	0.5	13	../stimuli/combined/switch-0.5_chunk-500_C_G_alternating_13.mp3	57	4.041	[(None, 0.0), (55, 2.086), (56, 2.432), (57, 2.587), (57, 4.041)]	14.9486476694	56.8992839383	2430.16047835	96.1714174293	2019_Apr_04_0842	Sound Switch 12-20-2018	318-laptop	bpl	JC
80	beautiful	1	4	0.9	12	../stimuli/combined/switch-0.9_chunk-500_C_G_alternating_12.mp3	50	4.945	[(None, 0.0), (57, 2.134), (56, 2.184), (55, 2.261), (54, 2.417), (53, 2.589), (52, 2.714), (51, 3.088), (50, 3.213), (50, 4.945)]	15.8686449668	72.7729468294	2446.03414125	112.045080715	2019_Apr_04_0842	Sound Switch 12-20-2018	318-laptop	bpl	JC
80	beautiful	1	5	0.7	19	../stimuli/combined/switch-0.7_chunk-500_C_G_alternating_19.mp3	51	5.058	[(None, 0.0), (52, 1.363), (53, 1.818), (52, 2.702), (51, 2.765), (52, 3.503), (51, 4.096), (51, 5.058)]	15.9860126349	88.7637533599	2462.02494738	128.035886851	2019_Apr_04_0842	Sound Switch 12-20-2018	318-laptop	bpl	JC
80	beautiful	1	6	0.5	1	../stimuli/combined/switch-0.5_chunk-500_C_G_alternating_01.mp3	57	9.163	[(None, 0.0), (52, 2.138), (53, 2.325), (54, 2.375), (55, 2.407), (56, 2.417), (57, 2.438), (57, 9.163)]	20.9500949652	109.718660791	2482.97985521	148.990794282	2019_Apr_04_0842	Sound Switch 12-20-2018	318-laptop	bpl	JC
80	beautiful	1	7	0.1	10	../stimuli/combined/switch-0.1_chunk-500_C_G_alternating_10.mp3	41	6.878	[(None, 0.0), (44, 1.471), (43, 1.584), (42, 1.599), (40, 1.615), (39, 1.63), (37, 1.646), (36, 1.662), (37, 2.176), (38, 2.269), (37, 2.472), (38, 6.005), (39, 6.114), (40, 6.176), (41, 6.285), (41, 6.878)]	17.819035871	127.541208814	2500.80240402	166.81334349	2019_Apr_04_0842	Sound Switch 12-20-2018	318-laptop	bpl	JC
80	beautiful	1	8	0.1	5	../stimuli/combined/switch-0.1_chunk-500_C_G_alternating_05.mp3	50	3.006	[(None, 0.0), (55, 1.489), (54, 1.617), (53, 1.648), (52, 1.679), (51, 1.71), (50, 1.737), (50, 3.006)]	13.9169383392	141.462587424	2514.72378223	180.734721705	2019_Apr_04_0842	Sound Switch 12-20-2018	318-laptop	bpl	JC
80	beautiful	1	9	0.5	9	../stimuli/combined/switch-0.5_chunk-500_C_G_alternating_09.mp3	53	6.152	[(None, 0.0), (52, 1.818), (53, 4.935), (53, 6.152)]	17.0866567862	158.561994479	2531.82318889	197.83412797	2019_Apr_04_0842	Sound Switch 12-20-2018	318-laptop	bpl	JC
80	beautiful	1	10	0.9	3	../stimuli/combined/switch-0.9_chunk-500_C_G_alternating_03.mp3	58	3.366	[(None, 0.0), (57, 2.402), (58, 2.66), (58, 3.366)]	14.282805075	172.848692989	2546.1098874	212.120826875	2019_Apr_04_0842	Sound Switch 12-20-2018	318-laptop	bpl	JC
80	beautiful	1	11	0.8	11	../stimuli/combined/switch-0.8_chunk-500_C_G_alternating_11.mp3	52	5.357	[(None, 0.0), (54, 3.682), (53, 4.168), (52, 4.215), (52, 5.357)]	16.2821223212	189.134994016	2562.39618843	228.407127507	2019_Apr_04_0842	Sound Switch 12-20-2018	318-laptop	bpl	JC
80	beautiful	1	12	0.3	10	../stimuli/combined/switch-0.3_chunk-500_C_G_alternating_10.mp3	59	2.475	[(None, 0.0), (54, 1.595), (55, 1.621), (56, 1.66), (57, 1.692), (58, 1.734), (59, 1.764), (59, 2.475)]	13.4144540716	202.55329569	2575.81448971	241.825429181	2019_Apr_04_0842	Sound Switch 12-20-2018	318-laptop	bpl	JC
80	beautiful	1	13	0.4	5	../stimuli/combined/switch-0.4_chunk-500_C_G_alternating_05.mp3	28	4.053	[(None, 0.0), (46, 1.66), (45, 1.74), (44, 1.787), (29, 2.538), (28, 2.961), (28, 4.053)]	14.9742604192	217.54011949	2590.8013143	256.812253771	2019_Apr_04_0842	Sound Switch 12-20-2018	318-laptop	bpl	JC
80	beautiful	1	14	0.7	16	../stimuli/combined/switch-0.7_chunk-500_C_G_alternating_16.mp3	49	8.487	[(None, 0.0), (51, 7.248), (50, 7.517), (49, 7.624), (49, 8.486)]	19.4176212905	236.962148256	2610.22334228	276.234281747	2019_Apr_04_0842	Sound Switch 12-20-2018	318-laptop	bpl	JC
80	beautiful	1	15	0.8	5	../stimuli/combined/switch-0.8_chunk-500_C_G_alternating_05.mp3	47	5.948	[(None, 0.0), (46, 2.567), (47, 2.726), (47, 5.948)]	16.8605329194	253.827564762	2627.08875878	293.099698253	2019_Apr_04_0842	Sound Switch 12-20-2018	318-laptop	bpl	JC
80	beautiful	1	16	0.6	6	../stimuli/combined/switch-0.6_chunk-500_C_G_alternating_06.mp3	46	3.862	[(None, 0.0), (48, 1.732), (49, 1.756), (48, 1.969), (47, 2.125), (46, 2.487), (46, 3.862)]	14.7854793915	268.617720306	2641.87891472	307.889854192	2019_Apr_04_0842	Sound Switch 12-20-2018	318-laptop	bpl	JC
80	beautiful	1	17	0.5	2	../stimuli/combined/switch-0.5_chunk-500_C_G_alternating_02.mp3	18	3.462	[(None, 0.0), (31, 2.274), (30, 2.323), (29, 2.355), (28, 2.401), (27, 2.444), (26, 2.475), (25, 2.513), (24, 2.537), (23, 2.584), (22, 2.615), (21, 2.631), (20, 2.647), (19, 2.678), (18, 2.709), (18, 3.462)]	14.3998740382	283.022376386	2656.2835712	322.294511063	2019_Apr_04_0842	Sound Switch 12-20-2018	318-laptop	bpl	JC
80	beautiful	1	18	0.2	9	../stimuli/combined/switch-0.2_chunk-500_C_G_alternating_09.mp3	41	5.099	[(None, 0.0), (26, 2.209), (25, 2.235), (24, 2.259), (23, 2.29), (22, 2.337), (21, 2.478), (20, 2.539), (21, 2.805), (22, 2.836), (23, 2.867), (24, 2.914), (25, 2.945), (26, 2.992), (27, 3.04), (28, 3.07), (29, 3.102), (31, 3.117), (32, 3.133), (33, 3.148), (34, 3.164), (35, 3.179), (36, 3.226), (37, 3.273), (38, 3.319), (39, 3.398), (40, 3.429), (41, 3.46), (41, 5.099)]	16.0295678224	299.056794605	2672.31798902	338.328928491	2019_Apr_04_0842	Sound Switch 12-20-2018	318-laptop	bpl	JC
80	beautiful	1	19	0.7	3	../stimuli/combined/switch-0.7_chunk-500_C_G_alternating_03.mp3	53	4.84	[(None, 0.0), (49, 1.51), (48, 3.435), (49, 3.482), (50, 3.513), (51, 3.529), (52, 3.794), (53, 3.872), (53, 4.84)]	15.7591886293	314.820813876	2688.08200869	354.092948157	2019_Apr_04_0842	Sound Switch 12-20-2018	318-laptop	bpl	JC
80	beautiful	1	20	0.2	1	../stimuli/combined/switch-0.2_chunk-500_C_G_alternating_01.mp3	36	3.45	[(None, 0.0), (37, 1.503), (36, 2.175), (36, 3.45)]	14.3795526303	329.205587913	2702.46678233	368.477721799	2019_Apr_04_0842	Sound Switch 12-20-2018	318-laptop	bpl	JC
80	beautiful	1	21	0.8	6	../stimuli/combined/switch-0.8_chunk-500_C_G_alternating_06.mp3	49	5.743	[(None, 0.0), (47, 1.436), (46, 1.532), (45, 1.579), (44, 1.595), (43, 1.611), (42, 1.626), (41, 1.657), (40, 1.751), (41, 4.453), (42, 4.499), (43, 4.531), (44, 4.562), (45, 4.577), (46, 4.608), (47, 4.671), (48, 4.718), (49, 4.733), (50, 4.842), (49, 5.025), (49, 5.743)]	16.6624861167	345.8778171	2719.13901152	385.149950986	2019_Apr_04_0842	Sound Switch 12-20-2018	318-laptop	bpl	JC
80	beautiful	1	22	0.5	19	../stimuli/combined/switch-0.5_chunk-500_C_G_alternating_19.mp3	62	2.563	[(None, 0.0), (61, 1.613), (62, 1.943), (62, 2.563)]	13.4938759593	359.375646157	2732.63684018	398.647780043	2019_Apr_04_0842	Sound Switch 12-20-2018	318-laptop	bpl	JC
80	beautiful	1	23	0.3	12	../stimuli/combined/switch-0.3_chunk-500_C_G_alternating_12.mp3	54	5.368	[(None, 0.0), (55, 2.157), (54, 2.347), (55, 2.533), (56, 2.565), (57, 2.596), (56, 2.747), (55, 2.811), (54, 4.67), (54, 5.368)]	16.2922778887	375.671871611	2748.93306603	414.944005497	2019_Apr_04_0842	Sound Switch 12-20-2018	318-laptop	bpl	JC
80	beautiful	1	24	0.9	15	../stimuli/combined/switch-0.9_chunk-500_C_G_alternating_15.mp3	67	3.94	[(None, 0.0), (73, 1.981), (72, 2.031), (71, 2.124), (70, 2.187), (69, 2.233), (68, 2.358), (67, 2.517), (66, 2.532), (65, 2.626), (66, 2.782), (67, 2.86), (68, 2.907), (69, 2.969), (68, 3.109), (67, 3.234), (67, 3.94)]	14.8645725459	390.541228965	2763.80242338	429.813362851	2019_Apr_04_0842	Sound Switch 12-20-2018	318-laptop	bpl	JC
80	beautiful	1	25	0.4	2	../stimuli/combined/switch-0.4_chunk-500_C_G_alternating_02.mp3	55	6.007	[(None, 0.0), (55, 3.362), (54, 3.412), (55, 4.131), (55, 6.007)]	16.9321639858	407.47864162	2780.73983564	446.750774716	2019_Apr_04_0842	Sound Switch 12-20-2018	318-laptop	bpl	JC
80	beautiful	1	26	0.1	8	../stimuli/combined/switch-0.1_chunk-500_C_G_alternating_08.mp3	0	3.926	[(None, 0.0), (34, 1.484), (33, 1.564), (32, 1.58), (31, 1.599), (29, 1.614), (27, 1.63), (24, 1.646), (21, 1.661), (19, 1.677), (17, 1.693), (16, 1.703), (15, 1.724), (14, 1.74), (0, 2.394), (1, 2.441), (2, 2.472), (3, 2.488), (4, 2.519), (5, 2.535), (6, 2.551), (7, 2.566), (8, 2.582), (7, 2.725), (6, 2.756), (5, 2.772), (4, 2.788), (3, 2.819), (2, 2.829), (1, 2.849), (0, 2.912), (0, 3.926)]	14.8548085346	422.337204115	2795.59839814	461.609338792	2019_Apr_04_0842	Sound Switch 12-20-2018	318-laptop	bpl	JC
80	beautiful	1	27	0.6	18	../stimuli/combined/switch-0.6_chunk-500_C_G_alternating_18.mp3	55	4.263	[(None, 0.0), (59, 2.575), (58, 2.766), (57, 2.776), (55, 2.797), (54, 2.828), (55, 3.342), (55, 4.263)]	15.1854229695	437.528866696	2810.79006111	476.801000977	2019_Apr_04_0842	Sound Switch 12-20-2018	318-laptop	bpl	JC
80	beautiful	1	28	0.4	19	../stimuli/combined/switch-0.4_chunk-500_C_G_alternating_19.mp3	54	6.429	[(None, 0.0), (53, 5.128), (54, 5.877), (54, 6.429)]	17.3524842874	454.885395746	2828.14659056	494.157530028	2019_Apr_04_0842	Sound Switch 12-20-2018	318-laptop	bpl	JC
80	beautiful	1	29	0.1	4	../stimuli/combined/switch-0.1_chunk-500_C_G_alternating_04.mp3	38	3.573	[(None, 0.0), (63, 1.87), (62, 1.896), (61, 1.919), (60, 1.935), (59, 1.95), (58, 1.982), (56, 1.997), (54, 2.012), (51, 2.028), (50, 2.044), (48, 2.06), (46, 2.075), (45, 2.09), (44, 2.309), (42, 2.324), (41, 2.34), (40, 2.356), (39, 2.371), (38, 2.387), (37, 2.402), (38, 2.589), (39, 2.683), (38, 2.855), (38, 3.573)]	14.4967567219	469.386901321	2842.64809574	508.659034812	2019_Apr_04_0842	Sound Switch 12-20-2018	318-laptop	bpl	JC
80	beautiful	1	30	0.1	6	../stimuli/combined/switch-0.1_chunk-500_C_G_alternating_06.mp3	7	4.826	[(None, 0.0), (15, 1.784), (14, 1.833), (13, 1.864), (12, 1.88), (10, 1.895), (9, 1.911), (6, 1.927), (4, 1.942), (3, 1.958), (1, 1.973), (0, 1.989), (12, 3.505), (11, 3.843), (10, 3.889), (9, 3.905), (8, 3.952), (7, 4.014), (7, 4.826)]	15.7354550329	485.126302339	2858.38749715	524.398436225	2019_Apr_04_0842	Sound Switch 12-20-2018	318-laptop	bpl	JC
80	beautiful	1	31	0.8	2	../stimuli/combined/switch-0.8_chunk-500_C_G_alternating_02.mp3	52	8.886	[(None, 0.0), (57, 6.563), (56, 8.168), (55, 8.184), (54, 8.199), (53, 8.215), (52, 8.23), (52, 8.886)]	19.8083184541	504.93931433	2878.20050914	544.211448216	2019_Apr_04_0842	Sound Switch 12-20-2018	318-laptop	bpl	JC
80	beautiful	1	32	0.7	8	../stimuli/combined/switch-0.7_chunk-500_C_G_alternating_08.mp3	44	8.399	[(None, 0.0), (44, 7.419), (44, 8.399)]	19.3241251131	524.268269689	2897.52946411	563.540403575	2019_Apr_04_0842	Sound Switch 12-20-2018	318-laptop	bpl	JC
80	beautiful	1	33	0.1	3	../stimuli/combined/switch-0.1_chunk-500_C_G_alternating_03.mp3	22	3.13	[(None, 0.0), (22, 1.91), (21, 1.936), (22, 2.536), (22, 3.13)]	14.0532935166	538.326278474	2911.5874725	577.59841157	2019_Apr_04_0842	Sound Switch 12-20-2018	318-laptop	bpl	JC
80	beautiful	1	34	0.8	7	../stimuli/combined/switch-0.8_chunk-500_C_G_alternating_07.mp3	38	3.483	[(None, 0.0), (42, 2.596), (41, 2.811), (40, 2.843), (39, 2.858), (38, 2.889), (38, 3.483)]	14.4064103785	552.73743652	2925.99863054	592.009570011	2019_Apr_04_0842	Sound Switch 12-20-2018	318-laptop	bpl	JC
80	beautiful	1	35	0.3	9	../stimuli/combined/switch-0.3_chunk-500_C_G_alternating_09.mp3	37	7.388	[(None, 0.0), (33, 4.292), (34, 4.513), (35, 4.872), (36, 4.935), (37, 5.059), (37, 7.388)]	18.3161252774	571.058287339	2944.31948176	610.33042083	2019_Apr_04_0842	Sound Switch 12-20-2018	318-laptop	bpl	JC
80	beautiful	1	36	0.5	3	../stimuli/combined/switch-0.5_chunk-500_C_G_alternating_03.mp3	50	3.702	[(None, 0.0), (39, 2.545), (40, 2.61), (41, 2.719), (42, 2.751), (43, 2.797), (45, 2.828), (46, 2.844), (47, 2.86), (48, 2.875), (49, 2.891), (50, 2.906), (50, 3.702)]	14.6222637002	585.686405021	2958.94759944	624.958538907	2019_Apr_04_0842	Sound Switch 12-20-2018	318-laptop	bpl	JC
80	beautiful	1	37	0.4	7	../stimuli/combined/switch-0.4_chunk-500_C_G_alternating_07.mp3	46	3.93	[(None, 0.0), (46, 3.378), (46, 3.929)]	14.8515346353	600.542763975	2973.80395839	639.814898652	2019_Apr_04_0842	Sound Switch 12-20-2018	318-laptop	bpl	JC
80	beautiful	1	38	0.5	16	../stimuli/combined/switch-0.5_chunk-500_C_G_alternating_16.mp3	56	5.622	[(None, 0.0), (60, 2.521), (59, 2.633), (57, 2.68), (56, 2.695), (55, 2.711), (54, 2.727), (53, 2.742), (54, 3.132), (55, 5.029), (56, 5.122), (56, 5.622)]	16.5456166851	617.093304943	2990.35449936	656.365438829	2019_Apr_04_0842	Sound Switch 12-20-2018	318-laptop	bpl	JC
80	beautiful	1	39	0.2	7	../stimuli/combined/switch-0.2_chunk-500_C_G_alternating_07.mp3	53	5.15	[(None, 0.0), (53, 3.435), (53, 5.15)]	16.1572728095	633.254620935	3006.51581575	672.526756007	2019_Apr_04_0842	Sound Switch 12-20-2018	318-laptop	bpl	JC
80	beautiful	1	40	0.9	13	../stimuli/combined/switch-0.9_chunk-500_C_G_alternating_13.mp3	47	3.689	[(None, 0.0), (50, 2.438), (47, 3.002), (47, 3.689)]	14.6127916767	647.871391391	3021.13258581	687.143525277	2019_Apr_04_0842	Sound Switch 12-20-2018	318-laptop	bpl	JC
80	beautiful	1	41	0.5	4	../stimuli/combined/switch-0.5_chunk-500_C_G_alternating_04.mp3	59	5.343	[(None, 0.0), (47, 2.958), (59, 3.46), (59, 5.343)]	16.2668599292	664.142490479	3037.40368489	703.41462397	2019_Apr_04_0842	Sound Switch 12-20-2018	318-laptop	bpl	JC
80	beautiful	1	42	0.6	1	../stimuli/combined/switch-0.6_chunk-500_C_G_alternating_01.mp3	50	5.663	[(None, 0.0), (51, 2.263), (50, 3.088), (50, 5.663)]	16.5714661071	680.718327712	3053.97952292	719.990462388	2019_Apr_04_0842	Sound Switch 12-20-2018	318-laptop	bpl	JC
80	beautiful	1	43	0.5	15	../stimuli/combined/switch-0.5_chunk-500_C_G_alternating_15.mp3	50	3.912	[(None, 0.0), (48, 2.427), (50, 2.992), (50, 3.912)]	14.8349272816	695.558005822	3068.81920024	734.830139708	2019_Apr_04_0842	Sound Switch 12-20-2018	318-laptop	bpl	JC
80	beautiful	1	44	0.8	17	../stimuli/combined/switch-0.8_chunk-500_C_G_alternating_17.mp3	64	2.131	[(None, 0.0), (64, 1.176), (64, 2.131)]	13.0587587078	708.620831419	3081.88202623	747.8929657	2019_Apr_04_0842	Sound Switch 12-20-2018	318-laptop	bpl	JC
80	beautiful	1	45	0.1	19	../stimuli/combined/switch-0.1_chunk-500_C_G_alternating_19.mp3	68	5.118	[(None, 0.0), (68, 4.335), (68, 5.118)]	16.0445101735	724.670240588	3097.931435	763.942375264	2019_Apr_04_0842	Sound Switch 12-20-2018	318-laptop	bpl	JC
80	beautiful	1	46	0.3	7	../stimuli/combined/switch-0.3_chunk-500_C_G_alternating_07.mp3	50	8.104	[(None, 0.0), (50, 5.502), (50, 8.104)]	19.0285444819	743.7034549	3116.96464892	782.975588391	2019_Apr_04_0842	Sound Switch 12-20-2018	318-laptop	bpl	JC
80	beautiful	1	47	0.6	2	../stimuli/combined/switch-0.6_chunk-500_C_G_alternating_02.mp3	44	6.355	[(None, 0.0), (44, 5.657), (44, 6.355)]	17.3743991826	761.081741196	3134.34293561	800.353875872	2019_Apr_04_0842	Sound Switch 12-20-2018	318-laptop	bpl	JC
80	beautiful	1	48	0.7	12	../stimuli/combined/switch-0.7_chunk-500_C_G_alternating_12.mp3	52	7.95	[(None, 0.0), (52, 7.292), (52, 7.95)]	18.860302569	779.947369482	3153.2085639	819.219503368	2019_Apr_04_0842	Sound Switch 12-20-2018	318-laptop	bpl	JC
80	beautiful	1	49	0.5	18	../stimuli/combined/switch-0.5_chunk-500_C_G_alternating_18.mp3	54	5.159	[(None, 0.0), (57, 3.476), (54, 4.368), (54, 5.159)]	16.0698269843	796.021870248	3169.28306506	835.294004529	2019_Apr_04_0842	Sound Switch 12-20-2018	318-laptop	bpl	JC
80	beautiful	1	50	0.3	3	../stimuli/combined/switch-0.3_chunk-500_C_G_alternating_03.mp3	57	3.8	[(None, 0.0), (57, 2.814), (57, 3.8)]	14.7345766986	810.761385058	3184.02257987	850.033518944	2019_Apr_04_0842	Sound Switch 12-20-2018	318-laptop	bpl	JC
80	beautiful	1	51	0.8	3	../stimuli/combined/switch-0.8_chunk-500_C_G_alternating_03.mp3	63	3.285	[(None, 0.0), (56, 2.19), (57, 2.216), (63, 2.583), (63, 3.285)]	14.2127975244	824.97917838	3198.24037319	864.251313056	2019_Apr_04_0842	Sound Switch 12-20-2018	318-laptop	bpl	JC
80	beautiful	1	52	0.3	0	../stimuli/combined/switch-0.3_chunk-500_C_G_alternating_00.mp3	58	4.381	[(None, 0.0), (58, 3.754), (58, 4.381)]	15.2978169659	840.281896712	3213.54309034	879.554029808	2019_Apr_04_0842	Sound Switch 12-20-2018	318-laptop	bpl	JC
80	beautiful	1	53	0.3	2	../stimuli/combined/switch-0.3_chunk-500_C_G_alternating_02.mp3	61	4.806	[(None, 0.0), (61, 2.634), (61, 4.806)]	15.7416444647	856.028256445	3229.28945086	895.300389936	2019_Apr_04_0842	Sound Switch 12-20-2018	318-laptop	bpl	JC
80	beautiful	1	54	0.7	6	../stimuli/combined/switch-0.7_chunk-500_C_G_alternating_06.mp3	25	7.632	[(None, 0.0), (19, 5.854), (25, 6.59), (25, 7.632)]	18.5668168225	874.600090797	3247.86128521	913.872224288	2019_Apr_04_0842	Sound Switch 12-20-2018	318-laptop	bpl	JC
80	beautiful	1	55	0.1	2	../stimuli/combined/switch-0.1_chunk-500_C_G_alternating_02.mp3	38	3.901	[(None, 0.0), (38, 3.103), (38, 3.901)]	14.8282858415	889.433088746	3262.69428316	928.705222237	2019_Apr_04_0842	Sound Switch 12-20-2018	318-laptop	bpl	JC
80	beautiful	1	56	0.3	14	../stimuli/combined/switch-0.3_chunk-500_C_G_alternating_14.mp3	48	4.836	[(None, 0.0), (48, 4.191), (48, 4.836)]	15.7644594253	905.201327814	3278.46252263	944.4734617	2019_Apr_04_0842	Sound Switch 12-20-2018	318-laptop	bpl	JC
80	beautiful	1	57	0.4	0	../stimuli/combined/switch-0.4_chunk-500_C_G_alternating_00.mp3	55	7.95	[(None, 0.0), (50, 5.77), (55, 6.905), (55, 7.95)]	18.8641260692	924.069823428	3297.33101784	963.341957314	2019_Apr_04_0842	Sound Switch 12-20-2018	318-laptop	bpl	JC
80	beautiful	1	58	0.8	9	../stimuli/combined/switch-0.8_chunk-500_C_G_alternating_09.mp3	51	6.137	[(None, 0.0), (46, 5.323), (47, 5.482), (51, 5.684), (51, 6.137)]	17.0645028482	941.137962889	3314.3991581	980.41009717	2019_Apr_04_0842	Sound Switch 12-20-2018	318-laptop	bpl	JC
80	beautiful	1	59	0.1	9	../stimuli/combined/switch-0.1_chunk-500_C_G_alternating_09.mp3	43	2.435	[(None, 0.0), (43, 1.87), (43, 2.435)]	13.3502293824	954.501433664	3327.76262808	993.773567551	2019_Apr_04_0842	Sound Switch 12-20-2018	318-laptop	bpl	JC
80	beautiful	1	60	0.6	12	../stimuli/combined/switch-0.6_chunk-500_C_G_alternating_12.mp3	55	2.395	[(None, 0.0), (55, 1.83), (55, 2.395)]	13.3205963665	967.82533949	3341.08653351	1007.09747338	2019_Apr_04_0842	Sound Switch 12-20-2018	318-laptop	bpl	JC
80	beautiful	1	61	0.4	4	../stimuli/combined/switch-0.4_chunk-500_C_G_alternating_04.mp3	66	4.29	[(None, 0.0), (57, 1.617), (65, 2.836), (66, 2.946), (66, 4.29)]	15.1986762163	983.028698181	3356.2898926	1022.30083207	2019_Apr_04_0842	Sound Switch 12-20-2018	318-laptop	bpl	JC
80	beautiful	1	62	0.4	9	../stimuli/combined/switch-0.4_chunk-500_C_G_alternating_09.mp3	63	3.742	[(None, 0.0), (63, 2.819), (63, 3.742)]	14.6953957977	997.730294473	3370.99148889	1037.00242836	2019_Apr_04_0842	Sound Switch 12-20-2018	318-laptop	bpl	JC
80	beautiful	1	63	0.7	10	../stimuli/combined/switch-0.7_chunk-500_C_G_alternating_10.mp3	41	3.438	[(None, 0.0), (41, 2.733), (41, 3.438)]	14.3560983782	1012.09113064	3385.35232506	1051.36326453	2019_Apr_04_0842	Sound Switch 12-20-2018	318-laptop	bpl	JC
80	beautiful	1	64	0.5	11	../stimuli/combined/switch-0.5_chunk-500_C_G_alternating_11.mp3	53	4.532	[(None, 0.0), (53, 3.211), (53, 4.532)]	15.4554224598	1027.55052753	3400.81172274	1066.82266221	2019_Apr_04_0842	Sound Switch 12-20-2018	318-laptop	bpl	JC
80	beautiful	1	65	0.6	9	../stimuli/combined/switch-0.6_chunk-500_C_G_alternating_09.mp3	61	9.647	[(None, 0.0), (61, 8.922), (61, 9.647)]	20.5711334227	1048.12540306	3421.38659748	1087.39753695	2019_Apr_04_0842	Sound Switch 12-20-2018	318-laptop	bpl	JC
80	beautiful	1	66	0.5	12	../stimuli/combined/switch-0.5_chunk-500_C_G_alternating_12.mp3	55	3.742	[(None, 0.0), (50, 2.397), (55, 3.086), (55, 3.742)]	14.6510582881	1062.7790687	3436.04026311	1102.05120258	2019_Apr_04_0842	Sound Switch 12-20-2018	318-laptop	bpl	JC
80	beautiful	1	67	0.1	13	../stimuli/combined/switch-0.1_chunk-500_C_G_alternating_13.mp3	72	6.166	[(None, 0.0), (56, 4.18), (63, 5.089), (64, 5.166), (65, 5.198), (66, 5.213), (69, 5.229), (72, 5.245), (72, 6.165)]	17.0884857604	1079.87226261	3453.13345742	1119.14439729	2019_Apr_04_0842	Sound Switch 12-20-2018	318-laptop	bpl	JC
80	beautiful	1	68	0.3	6	../stimuli/combined/switch-0.3_chunk-500_C_G_alternating_06.mp3	59	7.92	[(None, 0.0), (59, 7.106), (59, 7.92)]	18.8419266933	1098.71929297	3471.98048739	1137.99142686	2019_Apr_04_0842	Sound Switch 12-20-2018	318-laptop	bpl	JC
80	beautiful	1	69	0.9	0	../stimuli/combined/switch-0.9_chunk-500_C_G_alternating_00.mp3	10	2.552	[(None, 0.0), (10, 1.598), (10, 2.552)]	13.4755071956	1112.19987657	3485.46107059	1151.47200966	2019_Apr_04_0842	Sound Switch 12-20-2018	318-laptop	bpl	JC
80	beautiful	1	70	0.8	12	../stimuli/combined/switch-0.8_chunk-500_C_G_alternating_12.mp3	48	6.512	[(None, 0.0), (49, 6.04), (48, 6.09), (48, 6.512)]	17.4197793931	1129.62434713	3502.88554154	1168.89648101	2019_Apr_04_0842	Sound Switch 12-20-2018	318-laptop	bpl	JC
80	beautiful	1	71	0.3	19	../stimuli/combined/switch-0.3_chunk-500_C_G_alternating_19.mp3	14	2.762	[(None, 0.0), (15, 2.126), (14, 2.176), (14, 2.762)]	13.6862908334	1143.31431171	3516.57550573	1182.5864452	2019_Apr_04_0842	Sound Switch 12-20-2018	318-laptop	bpl	JC
80	beautiful	1	72	0.7	18	../stimuli/combined/switch-0.7_chunk-500_C_G_alternating_18.mp3	64	8.069	[(None, 0.0), (58, 6.422), (62, 7.114), (64, 7.628), (64, 8.069)]	18.9938674644	1162.31185807	3535.57305248	1201.58399156	2019_Apr_04_0842	Sound Switch 12-20-2018	318-laptop	bpl	JC
80	beautiful	1	73	0.6	10	../stimuli/combined/switch-0.6_chunk-500_C_G_alternating_10.mp3	57	8.461	[(None, 0.0), (57, 8.005), (57, 8.461)]	19.3834922935	1181.70006879	3554.96126321	1220.97220268	2019_Apr_04_0842	Sound Switch 12-20-2018	318-laptop	bpl	JC
80	beautiful	1	74	0.6	14	../stimuli/combined/switch-0.6_chunk-500_C_G_alternating_14.mp3	57	4.224	[(None, 0.0), (51, 2.552), (57, 2.944), (57, 4.224)]	15.1521956184	1196.85715511	3570.11834952	1236.1292886	2019_Apr_04_0842	Sound Switch 12-20-2018	318-laptop	bpl	JC
80	beautiful	1	75	0.9	5	../stimuli/combined/switch-0.9_chunk-500_C_G_alternating_05.mp3	69	3.886	[(None, 0.0), (71, 3.214), (70, 3.278), (69, 3.325), (69, 3.886)]	14.8098139535	1211.6716784	3584.93287321	1250.94381229	2019_Apr_04_0842	Sound Switch 12-20-2018	318-laptop	bpl	JC
80	beautiful	1	76	0.4	13	../stimuli/combined/switch-0.4_chunk-500_C_G_alternating_13.mp3	50	6.367	[(None, 0.0), (50, 5.943), (50, 6.367)]	17.2882204821	1228.96531548	3602.22650989	1268.23744936	2019_Apr_04_0842	Sound Switch 12-20-2018	318-laptop	bpl	JC
80	beautiful	1	77	0.2	4	../stimuli/combined/switch-0.2_chunk-500_C_G_alternating_04.mp3	55	7.022	[(None, 0.0), (55, 3.666), (55, 7.022)]	17.934659119	1246.90333976	3620.16453418	1286.17547365	2019_Apr_04_0842	Sound Switch 12-20-2018	318-laptop	bpl	JC
80	beautiful	1	78	0.2	11	../stimuli/combined/switch-0.2_chunk-500_C_G_alternating_11.mp3	61	5.321	[(None, 0.0), (59, 3.6), (60, 3.625), (53, 4.291), (61, 4.837), (61, 5.321)]	16.2467230386	1263.15475753	3636.41595234	1302.42689141	2019_Apr_04_0842	Sound Switch 12-20-2018	318-laptop	bpl	JC
80	beautiful	1	79	0.6	8	../stimuli/combined/switch-0.6_chunk-500_C_G_alternating_08.mp3	46	7.743	[(None, 0.0), (48, 6.164), (47, 6.229), (46, 6.276), (46, 7.743)]	18.6663882443	1281.82506212	3655.08625654	1321.09719601	2019_Apr_04_0842	Sound Switch 12-20-2018	318-laptop	bpl	JC
80	beautiful	1	80	0.9	17	../stimuli/combined/switch-0.9_chunk-500_C_G_alternating_17.mp3	49	3.865	[(None, 0.0), (49, 3.253), (49, 3.865)]	14.7920512919	1296.6218761	3669.88307051	1335.89400998	2019_Apr_04_0842	Sound Switch 12-20-2018	318-laptop	bpl	JC
80	beautiful	1	81	0.5	8	../stimuli/combined/switch-0.5_chunk-500_C_G_alternating_08.mp3	38	5.023	[(None, 0.0), (39, 4.349), (38, 4.477), (38, 5.023)]	15.9498717268	1312.57666065	3685.83785506	1351.84879532	2019_Apr_04_0842	Sound Switch 12-20-2018	318-laptop	bpl	JC
80	beautiful	1	82	0.2	18	../stimuli/combined/switch-0.2_chunk-500_C_G_alternating_18.mp3	25	5.664	[(None, 0.0), (18, 4.115), (17, 4.14), (25, 4.884), (25, 5.664)]	16.5873417131	1329.16941105	3702.43060586	1368.44154494	2019_Apr_04_0842	Sound Switch 12-20-2018	318-laptop	bpl	JC
80	beautiful	1	83	0.4	18	../stimuli/combined/switch-0.4_chunk-500_C_G_alternating_18.mp3	87	2.245	[(None, 0.0), (88, 1.353), (87, 1.48), (87, 2.245)]	13.1687105159	1342.34199445	3715.60318887	1381.61412874	2019_Apr_04_0842	Sound Switch 12-20-2018	318-laptop	bpl	JC
80	beautiful	1	84	0.1	11	../stimuli/combined/switch-0.1_chunk-500_C_G_alternating_11.mp3	26	1.509	[(None, 0.0), (27, 0.723), (26, 0.822), (26, 1.508)]	12.432483829	1354.77950174	3728.04069655	1394.05163602	2019_Apr_04_0842	Sound Switch 12-20-2018	318-laptop	bpl	JC
80	beautiful	1	85	0.1	7	../stimuli/combined/switch-0.1_chunk-500_C_G_alternating_07.mp3	56	5.571	[(None, 0.0), (56, 5.054), (56, 5.571)]	16.498821578	1371.28321915	3744.54441396	1410.55535343	2019_Apr_04_0842	Sound Switch 12-20-2018	318-laptop	bpl	JC
80	beautiful	1	86	0.8	10	../stimuli/combined/switch-0.8_chunk-500_C_G_alternating_10.mp3	14	6.909	[(None, 0.0), (14, 1.581), (14, 6.909)]	17.829485402	1389.11641703	3762.37761065	1428.38854894	2019_Apr_04_0842	Sound Switch 12-20-2018	318-laptop	bpl	JC
80	beautiful	1	87	0.7	17	../stimuli/combined/switch-0.7_chunk-500_C_G_alternating_17.mp3	53	4.881	[(None, 0.0), (53, 3.924), (53, 4.881)]	15.7861297461	1404.90547653	3778.16667134	1444.17761081	2019_Apr_04_0842	Sound Switch 12-20-2018	318-laptop	bpl	JC
80	beautiful	1	88	0.5	10	../stimuli/combined/switch-0.5_chunk-500_C_G_alternating_10.mp3	44	6.245	[(None, 0.0), (43, 5.15), (44, 5.199), (44, 6.245)]	17.1678788049	1422.07808364	3795.33927766	1461.35021713	2019_Apr_04_0842	Sound Switch 12-20-2018	318-laptop	bpl	JC
80	beautiful	1	89	0.8	16	../stimuli/combined/switch-0.8_chunk-500_C_G_alternating_16.mp3	41	8.148	[(None, 0.0), (52, 7.334), (51, 7.36), (41, 7.742), (41, 8.148)]	19.057512129	1441.1395224	3814.4007176	1480.41165707	2019_Apr_04_0842	Sound Switch 12-20-2018	318-laptop	bpl	JC
80	beautiful	1	90	0.1	12	../stimuli/combined/switch-0.1_chunk-500_C_G_alternating_12.mp3	59	6.966	[(None, 0.0), (53, 6.184), (54, 6.243), (59, 6.529), (59, 6.966)]	17.8819448368	1459.03317441	3832.29436882	1498.3053079	2019_Apr_04_0842	Sound Switch 12-20-2018	318-laptop	bpl	JC
80	beautiful	1	91	0.8	8	../stimuli/combined/switch-0.8_chunk-500_C_G_alternating_08.mp3	43	6.91	[(None, 0.0), (50, 5.722), (43, 6.208), (43, 6.91)]	17.8342646785	1476.87241829	3850.1336127	1516.14455257	2019_Apr_04_0842	Sound Switch 12-20-2018	318-laptop	bpl	JC
80	beautiful	1	92	0.9	18	../stimuli/combined/switch-0.9_chunk-500_C_G_alternating_18.mp3	53	9.54	[(None, 0.0), (47, 7.833), (48, 7.913), (53, 8.354), (53, 9.54)]	20.4661296039	1497.34338288	3870.60457769	1536.61551677	2019_Apr_04_0842	Sound Switch 12-20-2018	318-laptop	bpl	JC
80	beautiful	1	93	0.2	3	../stimuli/combined/switch-0.2_chunk-500_C_G_alternating_03.mp3	57	7.898	[(None, 0.0), (57, 5.212), (57, 7.898)]	18.8234540151	1516.17078723	3889.43198164	1555.44292111	2019_Apr_04_0842	Sound Switch 12-20-2018	318-laptop	bpl	JC
80	beautiful	1	94	0.3	8	../stimuli/combined/switch-0.3_chunk-500_C_G_alternating_08.mp3	33	10.265	[(None, 0.0), (34, 9.685), (33, 9.735), (33, 10.265)]	21.1874427828	1537.36293184	3910.62412626	1576.63506573	2019_Apr_04_0842	Sound Switch 12-20-2018	318-laptop	bpl	JC
80	beautiful	1	95	0.2	2	../stimuli/combined/switch-0.2_chunk-500_C_G_alternating_02.mp3	36	3.365	[(None, 0.0), (37, 2.847), (36, 2.896), (36, 3.365)]	14.2879154555	1551.65456056	3924.91575498	1590.92669524	2019_Apr_04_0842	Sound Switch 12-20-2018	318-laptop	bpl	JC
80	beautiful	1	96	0.4	11	../stimuli/combined/switch-0.4_chunk-500_C_G_alternating_11.mp3	37	10.445	[(None, 0.0), (37, 2.038), (37, 10.445)]	21.3853773736	1573.04429365	3946.30548846	1612.31642793	2019_Apr_04_0842	Sound Switch 12-20-2018	318-laptop	bpl	JC
80	beautiful	1	97	0.8	0	../stimuli/combined/switch-0.8_chunk-500_C_G_alternating_00.mp3	57	5.3	[(None, 0.0), (58, 4.445), (57, 4.556), (57, 5.3)]	16.2233983833	1589.27275105	3962.53394547	1628.54488494	2019_Apr_04_0842	Sound Switch 12-20-2018	318-laptop	bpl	JC
80	beautiful	1	98	0.1	18	../stimuli/combined/switch-0.1_chunk-500_C_G_alternating_18.mp3	16	1.63	[(None, 0.0), (16, 0.697), (16, 1.63)]	12.5704708196	1601.84703826	3975.10823268	1641.11917215	2019_Apr_04_0842	Sound Switch 12-20-2018	318-laptop	bpl	JC
80	beautiful	1	99	0.5	5	../stimuli/combined/switch-0.5_chunk-500_C_G_alternating_05.mp3	22	6.003	[(None, 0.0), (22, 4.658), (22, 6.003)]	16.926362159	1618.77830139	3992.03949581	1658.05043488	2019_Apr_04_0842	Sound Switch 12-20-2018	318-laptop	bpl	JC
80	beautiful	1	100	0.9	4	../stimuli/combined/switch-0.9_chunk-500_C_G_alternating_04.mp3	53	3.829	[(None, 0.0), (52, 2.723), (53, 2.804), (53, 3.829)]	14.754759027	1633.53777845	4006.79897247	1672.80991194	2019_Apr_04_0842	Sound Switch 12-20-2018	318-laptop	bpl	JC
80	beautiful	1	101	0.3	17	../stimuli/combined/switch-0.3_chunk-500_C_G_alternating_17.mp3	43	3.013	[(None, 0.0), (43, 2.371), (43, 3.013)]	13.9419710644	1647.48470462	4020.74589903	1686.75683811	2019_Apr_04_0842	Sound Switch 12-20-2018	318-laptop	bpl	JC
80	beautiful	1	102	0.5	17	../stimuli/combined/switch-0.5_chunk-500_C_G_alternating_17.mp3	63	2.731	[(None, 0.0), (63, 2.229), (63, 2.731)]	13.6543432505	1661.14285951	4034.40405393	1700.414993	2019_Apr_04_0842	Sound Switch 12-20-2018	318-laptop	bpl	JC
80	beautiful	1	103	0.5	7	../stimuli/combined/switch-0.5_chunk-500_C_G_alternating_07.mp3	66	7.791	[(None, 0.0), (59, 2.785), (66, 3.844), (66, 7.791)]	18.7141450544	1679.86072731	4053.12192173	1719.13286081	2019_Apr_04_0842	Sound Switch 12-20-2018	318-laptop	bpl	JC
80	beautiful	1	104	0.8	1	../stimuli/combined/switch-0.8_chunk-500_C_G_alternating_01.mp3	37	10.101	[(None, 0.0), (38, 9.143), (37, 9.193), (37, 10.101)]	21.0235692298	1700.88928523	4074.15047925	1740.16141833	2019_Apr_04_0842	Sound Switch 12-20-2018	318-laptop	bpl	JC
80	beautiful	1	105	0.4	1	../stimuli/combined/switch-0.4_chunk-500_C_G_alternating_01.mp3	65	3.338	[(None, 0.0), (67, 2.742), (66, 2.792), (65, 2.838), (65, 3.338)]	14.2618443756	1715.15581682	4088.41701124	1754.4279515	2019_Apr_04_0842	Sound Switch 12-20-2018	318-laptop	bpl	JC
80	beautiful	1	106	0.7	0	../stimuli/combined/switch-0.7_chunk-500_C_G_alternating_00.mp3	72	10.573	[(None, 0.0), (72, 9.54), (72, 10.573)]	21.4967594877	1736.65628246	4109.91747688	1775.92841635	2019_Apr_04_0842	Sound Switch 12-20-2018	318-laptop	bpl	JC
80	beautiful	1	107	0.7	14	../stimuli/combined/switch-0.7_chunk-500_C_G_alternating_14.mp3	52	5.177	[(None, 0.0), (52, 4.456), (52, 5.177)]	16.1044775294	1752.76558075	4126.02677477	1792.03771424	2019_Apr_04_0842	Sound Switch 12-20-2018	318-laptop	bpl	JC
80	beautiful	1	108	0.2	8	../stimuli/combined/switch-0.2_chunk-500_C_G_alternating_08.mp3	87	4.369	[(None, 0.0), (87, 3.622), (87, 4.369)]	15.2812210704	1768.05150208	4141.31269649	1807.32363557	2019_Apr_04_0842	Sound Switch 12-20-2018	318-laptop	bpl	JC
80	beautiful	1	109	0.8	4	../stimuli/combined/switch-0.8_chunk-500_C_G_alternating_04.mp3	49	23.677	[(None, 0.0), (48, 22.66), (49, 22.685), (49, 23.677)]	34.598981717	1802.65536896	4175.91656298	1841.92750245	2019_Apr_04_0842	Sound Switch 12-20-2018	318-laptop	bpl	JC
80	beautiful	1	110	0.4	15	../stimuli/combined/switch-0.4_chunk-500_C_G_alternating_15.mp3	47	3.493	[(None, 0.0), (47, 2.441), (47, 3.493)]	14.436112539	1817.09646505	4190.35765947	1856.36859894	2019_Apr_04_0842	Sound Switch 12-20-2018	318-laptop	bpl	JC
80	beautiful	1	111	0.6	0	../stimuli/combined/switch-0.6_chunk-500_C_G_alternating_00.mp3	21	7.182	[(None, 0.0), (21, 6.072), (21, 7.182)]	18.1063515463	1835.20797913	4208.46917394	1874.48011302	2019_Apr_04_0842	Sound Switch 12-20-2018	318-laptop	bpl	JC
80	beautiful	1	112	0.1	14	../stimuli/combined/switch-0.1_chunk-500_C_G_alternating_14.mp3	32	13.244	[(None, 0.0), (32, 11.526), (32, 13.244)]	24.1680720147	1859.38022669	4232.64142111	1898.65236058	2019_Apr_04_0842	Sound Switch 12-20-2018	318-laptop	bpl	JC
80	beautiful	1	113	0.2	15	../stimuli/combined/switch-0.2_chunk-500_C_G_alternating_15.mp3	47	17.353	[(None, 0.0), (47, 16.913), (47, 17.353)]	28.2781364299	1887.66248138	4260.92367619	1926.93461526	2019_Apr_04_0842	Sound Switch 12-20-2018	318-laptop	bpl	JC
80	beautiful	1	114	0.2	10	../stimuli/combined/switch-0.2_chunk-500_C_G_alternating_10.mp3	21	6.474	[(None, 0.0), (32, 4.703), (21, 5.855), (21, 6.474)]	17.3986404981	1905.06628994	4278.32748436	1944.33842383	2019_Apr_04_0842	Sound Switch 12-20-2018	318-laptop	bpl	JC
80	beautiful	1	115	0.5	6	../stimuli/combined/switch-0.5_chunk-500_C_G_alternating_06.mp3	25	6.856	[(None, 0.0), (44, 5.734), (43, 5.795), (25, 6.263), (25, 6.856)]	17.7732814894	1922.86514901	4296.12634383	1962.1372829	2019_Apr_04_0842	Sound Switch 12-20-2018	318-laptop	bpl	JC
80	beautiful	1	116	0.2	6	../stimuli/combined/switch-0.2_chunk-500_C_G_alternating_06.mp3	79	10.237	[(None, 0.0), (79, 9.002), (79, 10.237)]	21.1579326468	1944.02799962	4317.28919364	1983.30013272	2019_Apr_04_0842	Sound Switch 12-20-2018	318-laptop	bpl	JC
80	beautiful	1	117	0.6	19	../stimuli/combined/switch-0.6_chunk-500_C_G_alternating_19.mp3	82	1.525	[(None, 0.0), (82, 0.825), (82, 1.525)]	12.4420826835	1956.47846501	4329.73965942	1995.75059889	2019_Apr_04_0842	Sound Switch 12-20-2018	318-laptop	bpl	JC
80	beautiful	1	118	0.5	14	../stimuli/combined/switch-0.5_chunk-500_C_G_alternating_14.mp3	46	12.576	[(None, 0.0), (29, 11.153), (46, 12.107), (46, 12.576)]	23.502284736	1979.98544446	4353.24663927	2019.25758033	2019_Apr_04_0842	Sound Switch 12-20-2018	318-laptop	bpl	JC
80	beautiful	1	119	0.7	9	../stimuli/combined/switch-0.7_chunk-500_C_G_alternating_09.mp3	72	3.947	[(None, 0.0), (72, 3.211), (72, 3.947)]	14.8706236885	1994.86066923	4368.12186365	2034.13280312	2019_Apr_04_0842	Sound Switch 12-20-2018	318-laptop	bpl	JC
80	beautiful	1	120	0.2	12	../stimuli/combined/switch-0.2_chunk-500_C_G_alternating_12.mp3	24	9.03	[(None, 0.0), (43, 6.71), (41, 6.736), (38, 6.76), (37, 6.776), (35, 6.791), (34, 6.807), (33, 6.87), (32, 6.901), (31, 6.916), (30, 6.932), (29, 6.963), (28, 6.994), (19, 7.774), (24, 8.39), (24, 9.03)]	19.9692278758	2014.8348534	4388.09604742	2054.10698689	2019_Apr_04_0842	Sound Switch 12-20-2018	318-laptop	bpl	JC
80	beautiful	1	121	0.7	15	../stimuli/combined/switch-0.7_chunk-500_C_G_alternating_15.mp3	29	3.138	[(None, 0.0), (29, 2.465), (29, 3.138)]	14.06783878	2028.9075564	4402.16875082	2068.17968989	2019_Apr_04_0842	Sound Switch 12-20-2018	318-laptop	bpl	JC
80	beautiful	1	122	0.7	5	../stimuli/combined/switch-0.7_chunk-500_C_G_alternating_05.mp3	60	11.039	[(None, 0.0), (60, 10.335), (60, 11.039)]	21.9460936645	2050.85846688	4424.1196609	2090.13060037	2019_Apr_04_0842	Sound Switch 12-20-2018	318-laptop	bpl	JC
80	beautiful	1	123	0.4	14	../stimuli/combined/switch-0.4_chunk-500_C_G_alternating_14.mp3	87	2.319	[(None, 0.0), (87, 1.693), (87, 2.319)]	13.2478724199	2064.111068	4437.37226242	2103.38320189	2019_Apr_04_0842	Sound Switch 12-20-2018	318-laptop	bpl	JC
80	beautiful	1	124	0.9	11	../stimuli/combined/switch-0.9_chunk-500_C_G_alternating_11.mp3	3	1.402	[(None, 0.0), (3, 0.697), (3, 1.402)]	12.3242776263	2076.43927857	4449.70047299	2115.71141246	2019_Apr_04_0842	Sound Switch 12-20-2018	318-laptop	bpl	JC
80	beautiful	1	125	0.8	13	../stimuli/combined/switch-0.8_chunk-500_C_G_alternating_13.mp3	45	4.214	[(None, 0.0), (45, 3.146), (45, 4.213)]	15.1372181023	2091.58124118	4464.8424356	2130.85337507	2019_Apr_04_0842	Sound Switch 12-20-2018	318-laptop	bpl	JC
80	beautiful	1	126	0.3	4	../stimuli/combined/switch-0.3_chunk-500_C_G_alternating_04.mp3	57	5.643	[(None, 0.0), (62, 3.289), (49, 3.681), (65, 4.04), (57, 5.241), (57, 5.642)]	16.5658246959	2108.15141685	4481.41261127	2147.42355113	2019_Apr_04_0842	Sound Switch 12-20-2018	318-laptop	bpl	JC
80	beautiful	1	127	0.5	0	../stimuli/combined/switch-0.5_chunk-500_C_G_alternating_00.mp3	20	3.626	[(None, 0.0), (9, 1.86), (23, 2.924), (22, 2.97), (21, 3.001), (20, 3.048), (20, 3.626)]	14.5481264375	2122.70465762	4495.96585204	2161.97679151	2019_Apr_04_0842	Sound Switch 12-20-2018	318-laptop	bpl	JC
80	beautiful	1	128	0.6	13	../stimuli/combined/switch-0.6_chunk-500_C_G_alternating_13.mp3	40	2.105	[(None, 0.0), (39, 1.463), (40, 1.488), (40, 2.105)]	13.023038199	2135.73251698	4508.99371219	2175.00465126	2019_Apr_04_0842	Sound Switch 12-20-2018	318-laptop	bpl	JC
80	beautiful	1	129	0.6	11	../stimuli/combined/switch-0.6_chunk-500_C_G_alternating_11.mp3	55	4.495	[(None, 0.0), (55, 3.771), (55, 4.495)]	15.4224546974	2151.15973159	4524.42092601	2190.43186508	2019_Apr_04_0842	Sound Switch 12-20-2018	318-laptop	bpl	JC
80	beautiful	1	130	0.9	14	../stimuli/combined/switch-0.9_chunk-500_C_G_alternating_14.mp3	29	2.851	[(None, 0.0), (17, 1.163), (29, 2.117), (29, 2.851)]	13.7761737103	2164.93957115	4538.20076596	2204.21170504	2019_Apr_04_0842	Sound Switch 12-20-2018	318-laptop	bpl	JC
80	beautiful	1	131	0.4	3	../stimuli/combined/switch-0.4_chunk-500_C_G_alternating_03.mp3	49	8.443	[(None, 0.0), (47, 7.716), (48, 7.776), (49, 7.937), (49, 8.443)]	19.3484576995	2184.29430521	4557.55550318	2223.56644502	2019_Apr_04_0842	Sound Switch 12-20-2018	318-laptop	bpl	JC
80	beautiful	1	132	0.9	10	../stimuli/combined/switch-0.9_chunk-500_C_G_alternating_10.mp3	39	6.404	[(None, 0.0), (39, 5.133), (39, 6.404)]	17.3263989835	2201.62586396	4574.88705798	2240.89799706	2019_Apr_04_0842	Sound Switch 12-20-2018	318-laptop	bpl	JC
80	beautiful	1	133	0.9	8	../stimuli/combined/switch-0.9_chunk-500_C_G_alternating_08.mp3	25	7.397	[(None, 0.0), (25, 6.412), (25, 7.397)]	18.3250575777	2219.95601809	4593.21721251	2259.22815198	2019_Apr_04_0842	Sound Switch 12-20-2018	318-laptop	bpl	JC
80	beautiful	1	134	0.3	13	../stimuli/combined/switch-0.3_chunk-500_C_G_alternating_13.mp3	57	8.293	[(None, 0.0), (42, 5.432), (57, 7.805), (57, 8.293)]	19.2157889184	2239.17649304	4612.43768706	2278.44862693	2019_Apr_04_0842	Sound Switch 12-20-2018	318-laptop	bpl	JC
80	beautiful	1	135	0.4	12	../stimuli/combined/switch-0.4_chunk-500_C_G_alternating_12.mp3	65	6.581	[(None, 0.0), (52, 2.297), (65, 6.113), (65, 6.581)]	17.5073552102	2256.68805106	4629.94924626	2295.96018573	2019_Apr_04_0842	Sound Switch 12-20-2018	318-laptop	bpl	JC
80	beautiful	1	136	0.7	2	../stimuli/combined/switch-0.7_chunk-500_C_G_alternating_02.mp3	37	5.673	[(None, 0.0), (37, 5.146), (37, 5.673)]	16.5985794928	2273.2920586	4646.55325262	2312.56419249	2019_Apr_04_0842	Sound Switch 12-20-2018	318-laptop	bpl	JC
80	beautiful	1	137	0.9	7	../stimuli/combined/switch-0.9_chunk-500_C_G_alternating_07.mp3	36	6.012	[(None, 0.0), (44, 3.829), (43, 4.657), (36, 4.829), (36, 6.012)]	16.9358306265	2290.23167638	4663.49287079	2329.50381026	2019_Apr_04_0842	Sound Switch 12-20-2018	318-laptop	bpl	JC
80	beautiful	1	138	0.7	11	../stimuli/combined/switch-0.7_chunk-500_C_G_alternating_11.mp3	49	9.398	[(None, 0.0), (54, 5.051), (49, 5.835), (49, 9.398)]	20.3199867084	2310.55657947	4683.81777349	2349.82871296	2019_Apr_04_0842	Sound Switch 12-20-2018	318-laptop	bpl	JC
80	beautiful	1	139	0.3	18	../stimuli/combined/switch-0.3_chunk-500_C_G_alternating_18.mp3	8	2.75	[(None, 0.0), (8, 1.899), (8, 2.75)]	13.6777990831	2324.2393376	4697.50053202	2363.51147109	2019_Apr_04_0842	Sound Switch 12-20-2018	318-laptop	bpl	JC
80	beautiful	1	140	0.2	16	../stimuli/combined/switch-0.2_chunk-500_C_G_alternating_16.mp3	42	7.545	[(None, 0.0), (42, 6.674), (42, 7.545)]	18.4675369934	2342.71072338	4715.9719178	2381.98285727	2019_Apr_04_0842	Sound Switch 12-20-2018	318-laptop	bpl	JC
80	beautiful	1	141	0.9	1	../stimuli/combined/switch-0.9_chunk-500_C_G_alternating_01.mp3	37	9.063	[(None, 0.0), (37, 8.309), (37, 9.063)]	19.9907124939	2362.7061144	4735.96730921	2401.97824987	2019_Apr_04_0842	Sound Switch 12-20-2018	318-laptop	bpl	JC
80	beautiful	1	142	0.2	19	../stimuli/combined/switch-0.2_chunk-500_C_G_alternating_19.mp3	44	9.943	[(None, 0.0), (44, 9.426), (44, 9.943)]	20.8666923226	2383.57782741	4756.83902183	2422.8499613	2019_Apr_04_0842	Sound Switch 12-20-2018	318-laptop	bpl	JC
80	beautiful	1	143	0.6	5	../stimuli/combined/switch-0.6_chunk-500_C_G_alternating_05.mp3	50	9.28	[(None, 0.0), (50, 8.606), (50, 9.28)]	20.207349323	2403.78991769	4777.0511121	2443.06205157	2019_Apr_04_0842	Sound Switch 12-20-2018	318-laptop	bpl	JC
80	beautiful	1	144	0.7	7	../stimuli/combined/switch-0.7_chunk-500_C_G_alternating_07.mp3	32	22.734	[(None, 0.0), (19, 21.59), (32, 22.154), (32, 22.734)]	33.6617840025	2437.45669393	4810.71788835	2476.72882742	2019_Apr_04_0842	Sound Switch 12-20-2018	318-laptop	bpl	JC
80	beautiful	1	145	0.1	17	../stimuli/combined/switch-0.1_chunk-500_C_G_alternating_17.mp3	5	9.19	[(None, 0.0), (5, 3.38), (5, 9.19)]	20.1134900374	2457.57406674	4830.83526115	2496.84620062	2019_Apr_04_0842	Sound Switch 12-20-2018	318-laptop	bpl	JC
80	beautiful	1	146	0.3	16	../stimuli/combined/switch-0.3_chunk-500_C_G_alternating_16.mp3	47	12.09	[(None, 0.0), (47, 11.635), (47, 12.09)]	23.0176093582	2480.59639531	4853.85758973	2519.8685292	2019_Apr_04_0842	Sound Switch 12-20-2018	318-laptop	bpl	JC
80	beautiful	1	147	0.3	15	../stimuli/combined/switch-0.3_chunk-500_C_G_alternating_15.mp3	61	23.165	[(None, 0.0), (61, 11.158), (61, 23.165)]	34.0901037446	2514.69126688	4887.95246129	2553.96340076	2019_Apr_04_0842	Sound Switch 12-20-2018	318-laptop	bpl	JC
80	beautiful	1	148	0.7	4	../stimuli/combined/switch-0.7_chunk-500_C_G_alternating_04.mp3	54	16.528	[(None, 0.0), (68, 12.622), (60, 13.061), (54, 13.618), (54, 16.528)]	27.4509861407	2542.14708168	4915.4082761	2581.41921596	2019_Apr_04_0842	Sound Switch 12-20-2018	318-laptop	bpl	JC
80	beautiful	1	149	0.3	11	../stimuli/combined/switch-0.3_chunk-500_C_G_alternating_11.mp3	38	12.195	[(None, 0.0), (41, 11.526), (40, 11.59), (38, 11.606), (38, 12.195)]	23.1331610908	2565.28525003	4938.54644484	2604.5573851	2019_Apr_04_0842	Sound Switch 12-20-2018	318-laptop	bpl	JC
80	beautiful	1	150	0.6	15	../stimuli/combined/switch-0.6_chunk-500_C_G_alternating_15.mp3	66	14.46	[(None, 0.0), (38, 5.462), (46, 12.924), (48, 12.94), (50, 12.955), (51, 12.971), (53, 12.986), (54, 13.002), (55, 13.033), (56, 13.174), (58, 13.189), (60, 13.205), (64, 13.221), (66, 13.236), (68, 13.252), (69, 13.267), (68, 13.458), (67, 13.505), (66, 13.708), (66, 14.46)]	25.3844887664	2590.67345285	4963.93464727	2629.94558674	2019_Apr_04_0842	Sound Switch 12-20-2018	318-laptop	bpl	JC
80	beautiful	1	151	0.4	6	../stimuli/combined/switch-0.4_chunk-500_C_G_alternating_06.mp3	51	10.242	[(None, 0.0), (51, 9.692), (51, 10.242)]	21.1664180753	2611.84374144	4985.10493586	2651.11587533	2019_Apr_04_0842	Sound Switch 12-20-2018	318-laptop	bpl	JC
80	beautiful	1	152	0.4	17	../stimuli/combined/switch-0.4_chunk-500_C_G_alternating_17.mp3	64	22.589	[(None, 0.0), (48, 4.982), (49, 5.008), (50, 5.041), (54, 5.062), (60, 5.078), (64, 5.093), (68, 5.109), (72, 5.125), (75, 5.14), (78, 5.156), (91, 5.605), (90, 20.51), (89, 20.525), (88, 20.557), (87, 20.572), (86, 20.588), (85, 20.603), (84, 20.619), (83, 20.759), (82, 20.791), (80, 20.806), (78, 20.822), (76, 20.837), (75, 20.853), (74, 20.868), (73, 21.949), (72, 22.027), (70, 22.042), (69, 22.074), (67, 22.089), (66, 22.105), (65, 22.121), (64, 22.136), (64, 22.589)]	33.5153048666	2645.36406384	5018.62525826	2684.63619852	2019_Apr_04_0842	Sound Switch 12-20-2018	318-laptop	bpl	JC
80	beautiful	1	153	0.6	4	../stimuli/combined/switch-0.6_chunk-500_C_G_alternating_04.mp3	66	12.087	[(None, 0.0), (68, 11.335), (67, 11.361), (66, 11.385), (66, 12.087)]	23.0094894084	2668.37774144	5041.63893546	2707.64987493	2019_Apr_04_0842	Sound Switch 12-20-2018	318-laptop	bpl	JC
80	beautiful	1	154	0.2	5	../stimuli/combined/switch-0.2_chunk-500_C_G_alternating_05.mp3	41	6.948	[(None, 0.0), (41, 6.365), (41, 6.948)]	17.8722732817	2686.25517883	5059.51637325	2725.52731232	2019_Apr_04_0842	Sound Switch 12-20-2018	318-laptop	bpl	JC
80	beautiful	1	155	0.9	19	../stimuli/combined/switch-0.9_chunk-500_C_G_alternating_19.mp3	38	6.775	[(None, 0.0), (38, 6.101), (38, 6.775)]	17.6975645682	2703.95744089	5077.21863491	2743.22957438	2019_Apr_04_0842	Sound Switch 12-20-2018	318-laptop	bpl	JC
80	beautiful	1	156	0.3	1	../stimuli/combined/switch-0.3_chunk-500_C_G_alternating_01.mp3	61	6.976	[(None, 0.0), (61, 6.397), (61, 6.976)]	17.8792991659	2721.87881792	5095.14001234	2761.15095181	2019_Apr_04_0842	Sound Switch 12-20-2018	318-laptop	bpl	JC
80	beautiful	1	157	0.6	17	../stimuli/combined/switch-0.6_chunk-500_C_G_alternating_17.mp3	68	6.48	[(None, 0.0), (68, 5.889), (68, 6.479)]	17.4030519252	2739.28653888	5112.5477337	2778.55867317	2019_Apr_04_0842	Sound Switch 12-20-2018	318-laptop	bpl	JC
80	beautiful	1	158	0.9	6	../stimuli/combined/switch-0.9_chunk-500_C_G_alternating_06.mp3	56	3.61	[(None, 0.0), (56, 3.155), (56, 3.61)]	14.5272016933	2753.81762295	5127.07881737	2793.08975684	2019_Apr_04_0842	Sound Switch 12-20-2018	318-laptop	bpl	JC
80	beautiful	1	159	0.4	8	../stimuli/combined/switch-0.4_chunk-500_C_G_alternating_08.mp3	67	10.555	[(None, 0.0), (67, 9.928), (67, 10.555)]	21.4783504226	2775.30074475	5148.56193916	2814.57287863	2019_Apr_04_0842	Sound Switch 12-20-2018	318-laptop	bpl	JC
80	beautiful	1	160	0.4	16	../stimuli/combined/switch-0.4_chunk-500_C_G_alternating_16.mp3	41	12.537	[(None, 0.0), (32, 7.857), (31, 7.883), (41, 9.174), (41, 12.537)]	23.4616743193	2798.76619673	5172.02739154	2838.03833101	2019_Apr_04_0842	Sound Switch 12-20-2018	318-laptop	bpl	JC
80	beautiful	1	161	0.8	18	../stimuli/combined/switch-0.8_chunk-500_C_G_alternating_18.mp3	58	6.458	[(None, 0.0), (49, 4.416), (50, 4.466), (64, 5.386), (58, 5.947), (58, 6.458)]	17.3827874135	2816.15402262	5189.41521703	2855.4261565	2019_Apr_04_0842	Sound Switch 12-20-2018	318-laptop	bpl	JC
80	beautiful	1	162	0.8	19	../stimuli/combined/switch-0.8_chunk-500_C_G_alternating_19.mp3	21	1.929	[(None, 0.0), (21, 0.741), (21, 1.928)]	12.852343825	2829.01018876	5202.27138317	2868.28232304	2019_Apr_04_0842	Sound Switch 12-20-2018	318-laptop	bpl	JC
80	beautiful	1	163	0.9	9	../stimuli/combined/switch-0.9_chunk-500_C_G_alternating_09.mp3	56	5.617	[(None, 0.0), (72, 3.642), (62, 4.343), (56, 4.92), (56, 5.617)]	16.538478194	2845.5540389	5218.81523371	2884.82617318	2019_Apr_04_0842	Sound Switch 12-20-2018	318-laptop	bpl	JC
80	beautiful	1	164	0.3	5	../stimuli/combined/switch-0.3_chunk-500_C_G_alternating_05.mp3	63	10.117	[(None, 0.0), (63, 9.583), (63, 10.117)]	21.039632119	2866.5983606	5239.85955462	2905.87049409	2019_Apr_04_0842	Sound Switch 12-20-2018	318-laptop	bpl	JC
80	beautiful	1	165	0.1	1	../stimuli/combined/switch-0.1_chunk-500_C_G_alternating_01.mp3	23	4.812	[(None, 0.0), (23, 4.175), (23, 4.812)]	15.7386107936	2882.34170879	5255.6029036	2921.61384386	2019_Apr_04_0842	Sound Switch 12-20-2018	318-laptop	bpl	JC
80	beautiful	1	166	0.6	16	../stimuli/combined/switch-0.6_chunk-500_C_G_alternating_16.mp3	58	5.246	[(None, 0.0), (58, 4.775), (58, 5.246)]	16.1674339086	2898.51417248	5271.7753665	2937.78630597	2019_Apr_04_0842	Sound Switch 12-20-2018	318-laptop	bpl	JC
80	beautiful	1	167	0.1	15	../stimuli/combined/switch-0.1_chunk-500_C_G_alternating_15.mp3	81	4.441	[(None, 0.0), (80, 2.782), (81, 2.831), (82, 2.878), (83, 2.893), (84, 2.909), (85, 2.94), (86, 2.956), (87, 2.971), (88, 2.987), (81, 3.578), (81, 4.441)]	15.3678118729	2913.88669606	5287.14789087	2953.15883074	2019_Apr_04_0842	Sound Switch 12-20-2018	318-laptop	bpl	JC
80	beautiful	1	168	0.8	14	../stimuli/combined/switch-0.8_chunk-500_C_G_alternating_14.mp3	60	21.873	[(None, 0.0), (35, 4.013), (36, 4.063), (37, 4.078), (38, 4.199), (43, 4.312), (44, 4.328), (45, 4.343), (46, 4.359), (47, 4.374), (60, 20.687), (60, 21.873)]	32.7988646057	2946.69058057	5319.95177498	2985.96271445	2019_Apr_04_0842	Sound Switch 12-20-2018	318-laptop	bpl	JC
80	beautiful	1	169	0.4	10	../stimuli/combined/switch-0.4_chunk-500_C_G_alternating_10.mp3	53	14.491	[(None, 0.0), (47, 12.27), (41, 13.193), (53, 13.86), (53, 14.491)]	25.4193945539	2972.11370577	5345.37490018	3011.38583965	2019_Apr_04_0842	Sound Switch 12-20-2018	318-laptop	bpl	JC
80	beautiful	1	170	0.2	13	../stimuli/combined/switch-0.2_chunk-500_C_G_alternating_13.mp3	49	13.912	[(None, 0.0), (55, 12.132), (54, 12.227), (50, 12.602), (49, 12.789), (49, 13.912)]	24.8374247855	2996.95643493	5370.21762896	3036.22856843	2019_Apr_04_0842	Sound Switch 12-20-2018	318-laptop	bpl	JC
80	beautiful	1	171	0.7	13	../stimuli/combined/switch-0.7_chunk-500_C_G_alternating_13.mp3	56	18.327	[(None, 0.0), (53, 15.403), (54, 15.562), (57, 17.114), (55, 17.676), (56, 17.691), (56, 18.327)]	29.2721196621	3026.2323054	5399.49350021	3065.50443968	2019_Apr_04_0842	Sound Switch 12-20-2018	318-laptop	bpl	JC
80	beautiful	1	172	0.9	16	../stimuli/combined/switch-0.9_chunk-500_C_G_alternating_16.mp3	61	7.67	[(None, 0.0), (61, 6.792), (61, 7.669)]	18.5939997479	3044.83031237	5418.09150679	3084.10244626	2019_Apr_04_0842	Sound Switch 12-20-2018	318-laptop	bpl	JC
80	beautiful	1	173	0.9	2	../stimuli/combined/switch-0.9_chunk-500_C_G_alternating_02.mp3	50	11.127	[(None, 0.0), (50, 10.485), (50, 11.127)]	22.0907114271	3066.92573907	5440.18693348	3106.19787295	2019_Apr_04_0842	Sound Switch 12-20-2018	318-laptop	bpl	JC
80	beautiful	1	174	0.6	3	../stimuli/combined/switch-0.6_chunk-500_C_G_alternating_03.mp3	28	3.34	[(None, 0.0), (21, 2.226), (27, 2.728), (28, 2.837), (28, 3.34)]	14.2644781932	3081.19392183	5454.45511625	3120.46605572	2019_Apr_04_0842	Sound Switch 12-20-2018	318-laptop	bpl	JC
80	beautiful	1	175	0.7	1	../stimuli/combined/switch-0.7_chunk-500_C_G_alternating_01.mp3	59	3.976	[(None, 0.0), (59, 3.364), (59, 3.976)]	14.9014068758	3096.09904513	5469.36023955	3135.37117902	2019_Apr_04_0842	Sound Switch 12-20-2018	318-laptop	bpl	JC
80	beautiful	1	176	0.2	17	../stimuli/combined/switch-0.2_chunk-500_C_G_alternating_17.mp3	57	6.82	[(None, 0.0), (47, 3.712), (43, 5.288), (56, 5.881), (57, 5.912), (57, 6.82)]	17.7431087503	3113.84711807	5487.10831249	3153.11925196	2019_Apr_04_0842	Sound Switch 12-20-2018	318-laptop	bpl	JC
80	beautiful	1	177	0.2	14	../stimuli/combined/switch-0.2_chunk-500_C_G_alternating_14.mp3	67	8.83	[(None, 0.0), (56, 5.301), (67, 8.188), (67, 8.83)]	19.7567377487	3133.60881211	5506.87000652	3172.88094678	2019_Apr_04_0842	Sound Switch 12-20-2018	318-laptop	bpl	JC
80	beautiful	1	178	0.8	15	../stimuli/combined/switch-0.8_chunk-500_C_G_alternating_15.mp3	49	13.171	[(None, 0.0), (57, 12.174), (50, 12.734), (49, 12.812), (49, 13.171)]	24.1004300005	3157.71314305	5530.97433747	3196.98527694	2019_Apr_04_0842	Sound Switch 12-20-2018	318-laptop	bpl	JC
80	beautiful	1	179	0.2	0	../stimuli/combined/switch-0.2_chunk-500_C_G_alternating_00.mp3	47	5.451	[(None, 0.0), (47, 4.98), (47, 5.451)]	16.3809015432	3174.09879858	5547.359993	3213.37093286	2019_Apr_04_0842	Sound Switch 12-20-2018	318-laptop	bpl	JC
80	beautiful	1	180	0.1	16	../stimuli/combined/switch-0.1_chunk-500_C_G_alternating_16.mp3	46	19.476	[(None, 0.0), (46, 19.022), (46, 19.476)]	30.4017417334	3204.50421328	5577.76540809	3243.77634756	2019_Apr_04_0842	Sound Switch 12-20-2018	318-laptop	bpl	JC
80	beautiful	2	181	0.5	1	../stimuli/combined/switch-0.5_chunk-500_C_G_alternating_01.mp3	88	4.548	[(None, 0.0), (95, 3.341), (94, 3.391), (88, 3.924), (88, 4.548)]	15.4639778231	15.4644235096	5596.28319228	3262.29413175	2019_Apr_04_0842	Sound Switch 12-20-2018	318-laptop	bpl	JC
80	beautiful	2	182	0.8	18	../stimuli/combined/switch-0.8_chunk-500_C_G_alternating_18.mp3	64	4.166	[(None, 0.0), (60, 3.352), (64, 3.728), (64, 4.166)]	15.0750772345	30.5732184295	5611.3919876	3277.40292707	2019_Apr_04_0842	Sound Switch 12-20-2018	318-laptop	bpl	JC
80	beautiful	2	183	0.9	19	../stimuli/combined/switch-0.9_chunk-500_C_G_alternating_19.mp3	50	6.409	[(None, 0.0), (56, 5.194), (55, 5.275), (50, 5.572), (50, 6.409)]	17.3327875518	47.9109907161	5628.72975949	3294.74069936	2019_Apr_04_0842	Sound Switch 12-20-2018	318-laptop	bpl	JC
80	beautiful	2	184	0.7	15	../stimuli/combined/switch-0.7_chunk-500_C_G_alternating_15.mp3	41	26.343	[(None, 0.0), (46, 24.309), (45, 24.358), (41, 25.937), (41, 26.343)]	37.2675478194	85.1823711233	5666.00114148	3332.01208095	2019_Apr_04_0842	Sound Switch 12-20-2018	318-laptop	bpl	JC
80	beautiful	2	185	0.1	7	../stimuli/combined/switch-0.1_chunk-500_C_G_alternating_07.mp3	54	7.77	[(None, 0.0), (54, 7.0), (54, 7.77)]	18.6978115133	103.885335294	5684.70410407	3350.71504314	2019_Apr_04_0842	Sound Switch 12-20-2018	318-laptop	bpl	JC
80	beautiful	2	186	0.3	16	../stimuli/combined/switch-0.3_chunk-500_C_G_alternating_16.mp3	51	8.973	[(None, 0.0), (51, 3.11), (51, 8.973)]	19.9175136225	123.806616311	5704.62538588	3370.63632495	2019_Apr_04_0842	Sound Switch 12-20-2018	318-laptop	bpl	JC
80	beautiful	2	187	0.6	19	../stimuli/combined/switch-0.6_chunk-500_C_G_alternating_19.mp3	54	12.427	[(None, 0.0), (54, 11.909), (54, 12.427)]	23.3544902717	147.16490361	5727.98367278	3393.99461265	2019_Apr_04_0842	Sound Switch 12-20-2018	318-laptop	bpl	JC
80	beautiful	2	188	0.2	11	../stimuli/combined/switch-0.2_chunk-500_C_G_alternating_11.mp3	84	4.021	[(None, 0.0), (84, 3.383), (84, 4.021)]	14.9473675061	162.116962283	5742.93573145	3408.94667092	2019_Apr_04_0842	Sound Switch 12-20-2018	318-laptop	bpl	JC
80	beautiful	2	189	0.7	2	../stimuli/combined/switch-0.7_chunk-500_C_G_alternating_02.mp3	50	21.731	[(None, 0.0), (50, 20.917), (50, 21.731)]	32.7025240159	194.824339857	5775.64310942	3441.65404929	2019_Apr_04_0842	Sound Switch 12-20-2018	318-laptop	bpl	JC
80	beautiful	2	190	0.8	0	../stimuli/combined/switch-0.8_chunk-500_C_G_alternating_00.mp3	51	17.363	[(None, 0.0), (51, 16.593), (51, 17.362)]	28.2877554351	223.117085558	5803.93585473	3469.9467942	2019_Apr_04_0842	Sound Switch 12-20-2018	318-laptop	bpl	JC
80	beautiful	2	191	0.4	3	../stimuli/combined/switch-0.4_chunk-500_C_G_alternating_03.mp3	41	11.824	[(None, 0.0), (52, 9.416), (41, 11.072), (41, 11.824)]	22.7508486021	245.872916919	5826.69168569	3492.70262477	2019_Apr_04_0842	Sound Switch 12-20-2018	318-laptop	bpl	JC
80	beautiful	2	192	0.4	18	../stimuli/combined/switch-0.4_chunk-500_C_G_alternating_18.mp3	76	2.877	[(None, 0.0), (63, 1.601), (73, 2.275), (74, 2.29), (75, 2.306), (76, 2.337), (76, 2.876)]	13.8140942034	259.690983975	5840.50975315	3506.52069262	2019_Apr_04_0842	Sound Switch 12-20-2018	318-laptop	bpl	JC
80	beautiful	2	193	0.6	10	../stimuli/combined/switch-0.6_chunk-500_C_G_alternating_10.mp3	24	36.23	[(None, 0.0), (25, 35.592), (24, 35.642), (24, 36.23)]	47.1392296182	306.834435762	5887.65320493	3553.6641444	2019_Apr_04_0842	Sound Switch 12-20-2018	318-laptop	bpl	JC
80	beautiful	2	194	0.4	2	../stimuli/combined/switch-0.4_chunk-500_C_G_alternating_02.mp3	59	81.283	[(None, 0.0), (53, 18.23), (52, 18.295), (32, 19.148), (33, 19.211), (34, 19.226), (59, 80.862), (59, 81.283)]	92.2138256062	399.053064352	5979.87183352	3645.88277299	2019_Apr_04_0842	Sound Switch 12-20-2018	318-laptop	bpl	JC
80	beautiful	2	195	0.9	4	../stimuli/combined/switch-0.9_chunk-500_C_G_alternating_04.mp3	55	10.092	[(None, 0.0), (55, 9.625), (55, 10.092)]	21.0164113781	420.074729931	6000.89350187	3666.90444173	2019_Apr_04_0842	Sound Switch 12-20-2018	318-laptop	bpl	JC
80	beautiful	2	196	0.2	0	../stimuli/combined/switch-0.2_chunk-500_C_G_alternating_00.mp3	75	87.235	[(None, 0.0), (75, 86.749), (75, 87.235)]	98.1516961967	518.229766801	6099.04853637	3765.05947702	2019_Apr_04_0842	Sound Switch 12-20-2018	318-laptop	bpl	JC
80	beautiful	2	197	0.5	8	../stimuli/combined/switch-0.5_chunk-500_C_G_alternating_08.mp3	53	2.951	[(None, 0.0), (52, 2.157), (53, 2.237), (53, 2.95)]	13.8895685257	532.124577675	6112.94334684	3778.95428631	2019_Apr_04_0842	Sound Switch 12-20-2018	318-laptop	bpl	JC
80	beautiful	2	198	0.6	3	../stimuli/combined/switch-0.6_chunk-500_C_G_alternating_03.mp3	42	1.254	[(None, 0.0), (42, 0.736), (42, 1.254)]	12.1880571822	544.316054157	6125.13482333	3791.1457628	2019_Apr_04_0842	Sound Switch 12-20-2018	318-laptop	bpl	JC
80	beautiful	2	199	0.1	2	../stimuli/combined/switch-0.1_chunk-500_C_G_alternating_02.mp3	5	1.611	[(None, 0.0), (5, 0.999), (5, 1.611)]	12.5360616881	556.857034992	6137.67580377	3803.68674284	2019_Apr_04_0842	Sound Switch 12-20-2018	318-laptop	bpl	JC
80	beautiful	2	200	0.3	14	../stimuli/combined/switch-0.3_chunk-500_C_G_alternating_14.mp3	49	2.202	[(None, 0.0), (49, 1.377), (49, 2.202)]	13.1448176893	570.006802646	6150.82557182	3816.83651129	2019_Apr_04_0842	Sound Switch 12-20-2018	318-laptop	bpl	JC
