Subject ID	Condition	Block #	Trial #	Switch Rate	Exemplar	File Name	Rating	RT	Rating History	Trial Duration	Block Duration	Session Duration	Experiment Duration	Start Date	Experiment	Testing Location	Experimenter Initials	Subject Initials
01	patterned	1	1	0.3	10	../stimuli/combined/switch-0.3_chunk-500_C_G_alternating_10.mp3	41	7.309	[(None, 0.0), (41, 6.48), (41, 7.309)]	18.2223526511	18.2230594959	3670.83874971	19.81484935	2019_Feb_14_1305	Sound Switch 12-20-2018	318-laptop	bpl	WPH
01	patterned	1	2	0.1	17	../stimuli/combined/switch-0.1_chunk-500_C_G_alternating_17.mp3	100	2.725	[(None, 0.0), (100, 1.817), (100, 2.725)]	13.6319958466	31.8598448181	3684.47553582	33.4516354625	2019_Feb_14_1305	Sound Switch 12-20-2018	318-laptop	bpl	WPH
01	patterned	1	3	0.1	18	../stimuli/combined/switch-0.1_chunk-500_C_G_alternating_18.mp3	71	3.493	[(None, 0.0), (71, 2.784), (71, 3.493)]	14.4134840215	46.2791052902	3698.8947959	47.8708963297	2019_Feb_14_1305	Sound Switch 12-20-2018	318-laptop	bpl	WPH
01	patterned	1	4	0.7	10	../stimuli/combined/switch-0.7_chunk-500_C_G_alternating_10.mp3	68	2.446	[(None, 0.0), (68, 1.726), (68, 2.446)]	13.3914758239	59.6763634913	3712.2920545	61.2681545307	2019_Feb_14_1305	Sound Switch 12-20-2018	318-laptop	bpl	WPH
01	patterned	1	5	0.9	9	../stimuli/combined/switch-0.9_chunk-500_C_G_alternating_09.mp3	100	2.178	[(None, 0.0), (100, 1.333), (100, 2.178)]	13.1001048611	72.7813127478	3725.39700296	74.3731037872	2019_Feb_14_1305	Sound Switch 12-20-2018	318-laptop	bpl	WPH
01	patterned	1	6	0.3	14	../stimuli/combined/switch-0.3_chunk-500_C_G_alternating_14.mp3	46	2.462	[(None, 0.0), (46, 1.898), (46, 2.462)]	13.3834160554	86.1699414374	3738.78563165	87.7617312915	2019_Feb_14_1305	Sound Switch 12-20-2018	318-laptop	bpl	WPH
01	patterned	1	7	0.1	2	../stimuli/combined/switch-0.1_chunk-500_C_G_alternating_02.mp3	83	3.637	[(None, 0.0), (83, 2.558), (83, 3.637)]	14.5573686095	100.732786612	3753.34847683	102.324576861	2019_Feb_14_1305	Sound Switch 12-20-2018	318-laptop	bpl	WPH
01	patterned	1	8	0.6	12	../stimuli/combined/switch-0.6_chunk-500_C_G_alternating_12.mp3	34	2.636	[(None, 0.0), (34, 2.009), (34, 2.636)]	13.5548407209	114.293288412	3766.90897902	115.885079057	2019_Feb_14_1305	Sound Switch 12-20-2018	318-laptop	bpl	WPH
01	patterned	1	9	0.5	7	../stimuli/combined/switch-0.5_chunk-500_C_G_alternating_07.mp3	15	1.9	[(None, 0.0), (15, 1.273), (15, 1.9)]	12.82205806	127.120652352	3779.73634257	128.712442601	2019_Feb_14_1305	Sound Switch 12-20-2018	318-laptop	bpl	WPH
01	patterned	1	10	0.7	15	../stimuli/combined/switch-0.7_chunk-500_C_G_alternating_15.mp3	38	1.779	[(None, 0.0), (38, 1.105), (38, 1.779)]	12.6975968859	139.823954569	3792.43964478	141.415744423	2019_Feb_14_1305	Sound Switch 12-20-2018	318-laptop	bpl	WPH
01	patterned	1	11	0.7	12	../stimuli/combined/switch-0.7_chunk-500_C_G_alternating_12.mp3	34	3.444	[(None, 0.0), (34, 2.899), (34, 3.443)]	14.3645066745	154.193043289	3806.8087339	155.784833538	2019_Feb_14_1305	Sound Switch 12-20-2018	318-laptop	bpl	WPH
01	patterned	1	12	0.5	1	../stimuli/combined/switch-0.5_chunk-500_C_G_alternating_01.mp3	57	2.273	[(None, 0.0), (57, 1.724), (57, 2.273)]	13.1824655092	167.381009069	3819.99669968	168.972799319	2019_Feb_14_1305	Sound Switch 12-20-2018	318-laptop	bpl	WPH
01	patterned	1	13	0.4	2	../stimuli/combined/switch-0.4_chunk-500_C_G_alternating_02.mp3	14	1.757	[(None, 0.0), (14, 1.146), (14, 1.757)]	12.692012852	180.077793222	3832.69348344	181.669583471	2019_Feb_14_1305	Sound Switch 12-20-2018	318-laptop	bpl	WPH
01	patterned	1	14	0.9	17	../stimuli/combined/switch-0.9_chunk-500_C_G_alternating_17.mp3	88	2.888	[(None, 0.0), (88, 2.23), (88, 2.888)]	13.7995840323	193.882655476	3846.49834569	195.474445725	2019_Feb_14_1305	Sound Switch 12-20-2018	318-laptop	bpl	WPH
01	patterned	1	15	0.1	12	../stimuli/combined/switch-0.1_chunk-500_C_G_alternating_12.mp3	38	3.857	[(None, 0.0), (38, 3.246), (38, 3.857)]	14.7687234834	208.656998553	3861.27268956	210.248790383	2019_Feb_14_1305	Sound Switch 12-20-2018	318-laptop	bpl	WPH
01	patterned	1	16	0.9	14	../stimuli/combined/switch-0.9_chunk-500_C_G_alternating_14.mp3	14	1.871	[(None, 0.0), (14, 1.21), (14, 1.871)]	12.7883310167	221.450580924	3874.06627153	223.042371569	2019_Feb_14_1305	Sound Switch 12-20-2018	318-laptop	bpl	WPH
01	patterned	1	17	0.3	12	../stimuli/combined/switch-0.3_chunk-500_C_G_alternating_12.mp3	27	2.966	[(None, 0.0), (27, 2.073), (27, 2.965)]	13.8794132359	235.341552988	3887.9572432	236.933343237	2019_Feb_14_1305	Sound Switch 12-20-2018	318-laptop	bpl	WPH
01	patterned	1	18	0.5	9	../stimuli/combined/switch-0.5_chunk-500_C_G_alternating_09.mp3	35	4.589	[(None, 0.0), (35, 4.041), (35, 4.589)]	15.4990153957	250.845325461	3903.46101607	252.43711571	2019_Feb_14_1305	Sound Switch 12-20-2018	318-laptop	bpl	WPH
01	patterned	1	19	0.7	9	../stimuli/combined/switch-0.7_chunk-500_C_G_alternating_09.mp3	65	2.168	[(None, 0.0), (65, 1.635), (65, 2.168)]	13.0836475085	263.934560164	3916.55025077	265.526350413	2019_Feb_14_1305	Sound Switch 12-20-2018	318-laptop	bpl	WPH
01	patterned	1	20	0.6	19	../stimuli/combined/switch-0.6_chunk-500_C_G_alternating_19.mp3	13	1.575	[(None, 0.0), (13, 1.022), (13, 1.575)]	12.495708358	276.436234228	3929.05192484	278.028113772	2019_Feb_14_1305	Sound Switch 12-20-2018	318-laptop	bpl	WPH
01	patterned	1	21	0.7	13	../stimuli/combined/switch-0.7_chunk-500_C_G_alternating_13.mp3	7	1.514	[(None, 0.0), (7, 0.855), (7, 1.514)]	12.4328860996	288.874241298	3941.48993191	290.466031547	2019_Feb_14_1305	Sound Switch 12-20-2018	318-laptop	bpl	WPH
01	patterned	1	22	0.4	9	../stimuli/combined/switch-0.4_chunk-500_C_G_alternating_09.mp3	24	4.29	[(None, 0.0), (24, 3.726), (24, 4.29)]	15.2115425494	304.09113951	3956.70682972	305.682930154	2019_Feb_14_1305	Sound Switch 12-20-2018	318-laptop	bpl	WPH
01	patterned	1	23	0.4	14	../stimuli/combined/switch-0.4_chunk-500_C_G_alternating_14.mp3	30	2.456	[(None, 0.0), (28, 1.996), (29, 2.065), (30, 2.081), (30, 2.456)]	13.3779639869	317.474617597	3970.09030781	319.066407846	2019_Feb_14_1305	Sound Switch 12-20-2018	318-laptop	bpl	WPH
01	patterned	1	24	0.7	16	../stimuli/combined/switch-0.7_chunk-500_C_G_alternating_16.mp3	84	2.695	[(None, 0.0), (80, 1.756), (84, 2.101), (84, 2.695)]	13.615497403	331.095168801	3983.71085941	332.686959841	2019_Feb_14_1305	Sound Switch 12-20-2018	318-laptop	bpl	WPH
01	patterned	1	25	0.8	4	../stimuli/combined/switch-0.8_chunk-500_C_G_alternating_04.mp3	76	2.804	[(None, 0.0), (76, 2.318), (76, 2.804)]	13.7246201648	344.824325179	3997.44001618	346.416116613	2019_Feb_14_1305	Sound Switch 12-20-2018	318-laptop	bpl	WPH
01	patterned	1	26	0.6	17	../stimuli/combined/switch-0.6_chunk-500_C_G_alternating_17.mp3	30	2.637	[(None, 0.0), (30, 1.433), (30, 2.637)]	13.5607021193	358.390692329	4011.00638294	359.982482578	2019_Feb_14_1305	Sound Switch 12-20-2018	318-laptop	bpl	WPH
01	patterned	1	27	0.8	19	../stimuli/combined/switch-0.8_chunk-500_C_G_alternating_19.mp3	51	2.41	[(None, 0.0), (59, 1.429), (51, 1.894), (51, 2.41)]	13.313392594	371.709436239	4024.32512645	373.301226488	2019_Feb_14_1305	Sound Switch 12-20-2018	318-laptop	bpl	WPH
01	patterned	1	28	0.7	17	../stimuli/combined/switch-0.7_chunk-500_C_G_alternating_17.mp3	42	2.933	[(None, 0.0), (46, 1.417), (45, 1.442), (44, 1.481), (42, 1.513), (42, 2.933)]	13.8498099145	385.567060561	4038.18275157	387.158851996	2019_Feb_14_1305	Sound Switch 12-20-2018	318-laptop	bpl	WPH
01	patterned	1	29	0.6	5	../stimuli/combined/switch-0.6_chunk-500_C_G_alternating_05.mp3	29	2.398	[(None, 0.0), (29, 1.755), (29, 2.398)]	13.3040210734	398.875822907	4051.49151312	400.467612761	2019_Feb_14_1305	Sound Switch 12-20-2018	318-laptop	bpl	WPH
01	patterned	1	30	0.2	4	../stimuli/combined/switch-0.2_chunk-500_C_G_alternating_04.mp3	82	3.06	[(None, 0.0), (82, 2.059), (82, 3.06)]	13.9821791363	412.86348414	4065.47917514	414.455274784	2019_Feb_14_1305	Sound Switch 12-20-2018	318-laptop	bpl	WPH
01	patterned	1	31	0.9	15	../stimuli/combined/switch-0.9_chunk-500_C_G_alternating_15.mp3	37	6.535	[(None, 0.0), (55, 1.816), (54, 1.928), (53, 1.991), (52, 2.006), (51, 2.022), (50, 2.053), (49, 2.069), (48, 2.084), (46, 2.1), (45, 2.115), (33, 2.77), (34, 2.786), (36, 2.802), (38, 2.817), (40, 2.833), (41, 2.849), (42, 2.864), (43, 2.88), (45, 2.895), (46, 2.911), (47, 2.926), (49, 2.942), (64, 3.472), (63, 3.628), (62, 3.675), (61, 3.691), (59, 3.722), (58, 3.738), (57, 3.753), (55, 3.769), (54, 3.784), (52, 3.801), (51, 3.811), (48, 3.831), (46, 3.847), (44, 3.862), (43, 3.878), (42, 3.894), (41, 3.909), (40, 3.925), (39, 3.941), (37, 3.956), (36, 3.972), (35, 3.987), (34, 4.018), (33, 4.034), (32, 4.066), (31, 4.096), (30, 4.112), (29, 4.174), (30, 4.393), (31, 4.424), (32, 4.439), (34, 4.455), (35, 4.486), (36, 4.502), (37, 4.517), (38, 4.533), (40, 4.549), (41, 4.564), (43, 4.58), (44, 4.596), (46, 4.611), (47, 4.627), (49, 4.642), (50, 4.658), (51, 4.674), (53, 4.689), (54, 4.705), (55, 4.72), (56, 4.736), (57, 4.767), (58, 4.782), (59, 4.814), (60, 4.861), (59, 5.001), (58, 5.032), (57, 5.048), (56, 5.064), (55, 5.079), (54, 5.094), (53, 5.11), (52, 5.126), (51, 5.158), (50, 5.177), (49, 5.224), (48, 5.27), (47, 5.317), (46, 5.333), (45, 5.348), (43, 5.38), (42, 5.395), (40, 5.426), (39, 5.458), (38, 5.473), (37, 5.489), (37, 6.534)]	17.4576643859	430.325706074	4082.94139668	431.917498299	2019_Feb_14_1305	Sound Switch 12-20-2018	318-laptop	bpl	WPH
01	patterned	1	32	0.6	14	../stimuli/combined/switch-0.6_chunk-500_C_G_alternating_14.mp3	51	8.919	[(None, 0.0), (37, 7.465), (51, 8.294), (51, 8.919)]	19.8373798779	450.170809485	4102.7865001	451.76260013	2019_Feb_14_1305	Sound Switch 12-20-2018	318-laptop	bpl	WPH
01	patterned	1	33	0.7	5	../stimuli/combined/switch-0.7_chunk-500_C_G_alternating_05.mp3	42	3.356	[(None, 0.0), (42, 2.851), (42, 3.356)]	14.2754794019	464.451837757	4117.06752876	466.043629586	2019_Feb_14_1305	Sound Switch 12-20-2018	318-laptop	bpl	WPH
01	patterned	1	34	0.4	7	../stimuli/combined/switch-0.4_chunk-500_C_G_alternating_07.mp3	18	4.622	[(None, 0.0), (17, 3.93), (18, 4.073), (18, 4.622)]	15.5314808654	479.988583015	4132.60427323	481.580373265	2019_Feb_14_1305	Sound Switch 12-20-2018	318-laptop	bpl	WPH
01	patterned	1	35	0.1	19	../stimuli/combined/switch-0.1_chunk-500_C_G_alternating_19.mp3	97	1.713	[(None, 0.0), (97, 0.974), (97, 1.713)]	12.6293355976	492.623449703	4145.23914071	494.215240347	2019_Feb_14_1305	Sound Switch 12-20-2018	318-laptop	bpl	WPH
01	patterned	1	36	0.4	11	../stimuli/combined/switch-0.4_chunk-500_C_G_alternating_11.mp3	56	2.199	[(None, 0.0), (56, 1.635), (56, 2.199)]	13.1192532812	505.748359322	4158.36404993	507.340149571	2019_Feb_14_1305	Sound Switch 12-20-2018	318-laptop	bpl	WPH
01	patterned	1	37	0.9	7	../stimuli/combined/switch-0.9_chunk-500_C_G_alternating_07.mp3	28	1.551	[(None, 0.0), (28, 1.038), (28, 1.551)]	12.4616395479	518.214416946	4170.83010756	519.80620759	2019_Feb_14_1305	Sound Switch 12-20-2018	318-laptop	bpl	WPH
01	patterned	1	38	0.6	9	../stimuli/combined/switch-0.6_chunk-500_C_G_alternating_09.mp3	31	3.207	[(None, 0.0), (31, 2.784), (31, 3.207)]	14.122579284	532.342471215	4184.95816261	533.934263439	2019_Feb_14_1305	Sound Switch 12-20-2018	318-laptop	bpl	WPH
01	patterned	1	39	0.5	18	../stimuli/combined/switch-0.5_chunk-500_C_G_alternating_18.mp3	37	1.719	[(None, 0.0), (37, 1.346), (37, 1.719)]	12.6332021054	544.981300816	4197.59699103	546.57309146	2019_Feb_14_1305	Sound Switch 12-20-2018	318-laptop	bpl	WPH
01	patterned	1	40	0.4	10	../stimuli/combined/switch-0.4_chunk-500_C_G_alternating_10.mp3	26	31.438	[(None, 0.0), (26, 27.752), (26, 31.438)]	42.3438544809	587.330329605	4239.94601982	588.922119855	2019_Feb_14_1305	Sound Switch 12-20-2018	318-laptop	bpl	WPH
01	patterned	1	41	0.7	11	../stimuli/combined/switch-0.7_chunk-500_C_G_alternating_11.mp3	56	2.105	[(None, 0.0), (56, 1.166), (56, 2.105)]	13.0216972492	600.358074348	4252.97376575	601.949865782	2019_Feb_14_1305	Sound Switch 12-20-2018	318-laptop	bpl	WPH
01	patterned	1	42	0.2	0	../stimuli/combined/switch-0.2_chunk-500_C_G_alternating_00.mp3	49	2.426	[(None, 0.0), (49, 1.908), (49, 2.426)]	13.3389682042	613.702608411	4266.31829902	615.294399056	2019_Feb_14_1305	Sound Switch 12-20-2018	318-laptop	bpl	WPH
01	patterned	1	43	0.5	15	../stimuli/combined/switch-0.5_chunk-500_C_G_alternating_15.mp3	31	2.731	[(None, 0.0), (31, 1.885), (31, 2.731)]	13.6380729729	627.345106967	4279.96079758	628.936897611	2019_Feb_14_1305	Sound Switch 12-20-2018	318-laptop	bpl	WPH
01	patterned	1	44	0.1	6	../stimuli/combined/switch-0.1_chunk-500_C_G_alternating_06.mp3	73	3.838	[(None, 0.0), (73, 2.424), (73, 3.838)]	14.7440080191	642.093777238	4294.70946785	643.685567487	2019_Feb_14_1305	Sound Switch 12-20-2018	318-laptop	bpl	WPH
01	patterned	1	45	0.4	6	../stimuli/combined/switch-0.4_chunk-500_C_G_alternating_06.mp3	10	2.201	[(None, 0.0), (10, 1.216), (10, 2.201)]	13.1070405529	655.205322395	4307.82101261	656.797112249	2019_Feb_14_1305	Sound Switch 12-20-2018	318-laptop	bpl	WPH
01	patterned	1	46	0.2	5	../stimuli/combined/switch-0.2_chunk-500_C_G_alternating_05.mp3	13	1.588	[(None, 0.0), (13, 0.945), (13, 1.588)]	12.5081376044	667.718821193	4320.3345118	669.310611442	2019_Feb_14_1305	Sound Switch 12-20-2018	318-laptop	bpl	WPH
01	patterned	1	47	0.8	14	../stimuli/combined/switch-0.8_chunk-500_C_G_alternating_14.mp3	23	1.603	[(None, 0.0), (23, 0.976), (23, 1.603)]	12.6179585186	680.341189886	4332.95688089	681.932980925	2019_Feb_14_1305	Sound Switch 12-20-2018	318-laptop	bpl	WPH
01	patterned	1	48	0.5	17	../stimuli/combined/switch-0.5_chunk-500_C_G_alternating_17.mp3	35	1.212	[(None, 0.0), (35, 0.632), (35, 1.212)]	12.1518827199	692.498419576	4345.11411019	694.09021101	2019_Feb_14_1305	Sound Switch 12-20-2018	318-laptop	bpl	WPH
01	patterned	1	49	0.6	4	../stimuli/combined/switch-0.6_chunk-500_C_G_alternating_04.mp3	42	4.328	[(None, 0.0), (42, 3.121), (42, 4.328)]	15.251186701	707.754544312	4360.37023492	709.346334562	2019_Feb_14_1305	Sound Switch 12-20-2018	318-laptop	bpl	WPH
01	patterned	1	50	0.8	18	../stimuli/combined/switch-0.8_chunk-500_C_G_alternating_18.mp3	56	3.352	[(None, 0.0), (56, 2.163), (56, 3.352)]	14.2579568434	722.016991931	4374.63268294	723.608782576	2019_Feb_14_1305	Sound Switch 12-20-2018	318-laptop	bpl	WPH
01	patterned	1	51	0.3	16	../stimuli/combined/switch-0.3_chunk-500_C_G_alternating_16.mp3	56	3.523	[(None, 0.0), (56, 2.833), (56, 3.523)]	14.4440031988	736.466368177	4389.08205879	738.058159217	2019_Feb_14_1305	Sound Switch 12-20-2018	318-laptop	bpl	WPH
01	patterned	1	52	0.9	3	../stimuli/combined/switch-0.9_chunk-500_C_G_alternating_03.mp3	90	2.762	[(None, 0.0), (90, 2.041), (90, 2.762)]	13.6763567744	750.148088516	4402.76377913	751.739878766	2019_Feb_14_1305	Sound Switch 12-20-2018	318-laptop	bpl	WPH
01	patterned	1	53	0.8	5	../stimuli/combined/switch-0.8_chunk-500_C_G_alternating_05.mp3	85	3.398	[(None, 0.0), (87, 2.412), (86, 2.477), (85, 2.524), (85, 3.398)]	14.312044097	764.465821746	4417.08151236	766.057611995	2019_Feb_14_1305	Sound Switch 12-20-2018	318-laptop	bpl	WPH
01	patterned	1	54	0.3	13	../stimuli/combined/switch-0.3_chunk-500_C_G_alternating_13.mp3	38	1.102	[(None, 0.0), (38, 0.663), (38, 1.102)]	12.0174020512	776.4887296	4429.10442021	778.080519849	2019_Feb_14_1305	Sound Switch 12-20-2018	318-laptop	bpl	WPH
01	patterned	1	55	0.2	3	../stimuli/combined/switch-0.2_chunk-500_C_G_alternating_03.mp3	40	3.717	[(None, 0.0), (40, 2.852), (40, 3.717)]	14.6233098351	791.141950544	4443.75764076	792.733740793	2019_Feb_14_1305	Sound Switch 12-20-2018	318-laptop	bpl	WPH
01	patterned	1	56	0.8	10	../stimuli/combined/switch-0.8_chunk-500_C_G_alternating_10.mp3	50	3.527	[(None, 0.0), (52, 2.15), (51, 2.418), (50, 2.449), (50, 3.527)]	14.4471869634	805.594470649	4458.21016165	807.186261293	2019_Feb_14_1305	Sound Switch 12-20-2018	318-laptop	bpl	WPH
01	patterned	1	57	0.5	12	../stimuli/combined/switch-0.5_chunk-500_C_G_alternating_12.mp3	12	1.743	[(None, 0.0), (12, 1.116), (12, 1.743)]	12.6656328058	818.263727367	4470.87941837	819.855518012	2019_Feb_14_1305	Sound Switch 12-20-2018	318-laptop	bpl	WPH
01	patterned	1	58	0.6	13	../stimuli/combined/switch-0.6_chunk-500_C_G_alternating_13.mp3	43	15.775	[(None, 0.0), (43, 15.102), (43, 15.775)]	26.6880029206	844.957260192	4497.57295041	846.549050047	2019_Feb_14_1305	Sound Switch 12-20-2018	318-laptop	bpl	WPH
01	patterned	1	59	0.5	10	../stimuli/combined/switch-0.5_chunk-500_C_G_alternating_10.mp3	13	1.373	[(None, 0.0), (13, 0.727), (13, 1.373)]	12.2895538699	857.252357005	4509.86804762	858.84414765	2019_Feb_14_1305	Sound Switch 12-20-2018	318-laptop	bpl	WPH
01	patterned	1	60	0.9	12	../stimuli/combined/switch-0.9_chunk-500_C_G_alternating_12.mp3	30	1.727	[(None, 0.0), (30, 1.178), (30, 1.727)]	12.6473891787	869.905837534	4522.52152775	871.497627388	2019_Feb_14_1305	Sound Switch 12-20-2018	318-laptop	bpl	WPH
01	patterned	1	61	0.1	0	../stimuli/combined/switch-0.1_chunk-500_C_G_alternating_00.mp3	100	4.057	[(None, 0.0), (100, 2.729), (100, 4.057)]	14.9663555338	884.877870347	4537.49356096	886.469660596	2019_Feb_14_1305	Sound Switch 12-20-2018	318-laptop	bpl	WPH
01	patterned	1	62	0.1	15	../stimuli/combined/switch-0.1_chunk-500_C_G_alternating_15.mp3	60	5.835	[(None, 0.0), (60, 4.761), (60, 5.835)]	16.7468006287	901.631133725	4554.24682434	903.222923974	2019_Feb_14_1305	Sound Switch 12-20-2018	318-laptop	bpl	WPH
01	patterned	1	63	0.9	6	../stimuli/combined/switch-0.9_chunk-500_C_G_alternating_06.mp3	40	13.069	[(None, 0.0), (40, 12.209), (40, 13.069)]	23.991062701	925.62675674	4578.24244696	927.21854699	2019_Feb_14_1305	Sound Switch 12-20-2018	318-laptop	bpl	WPH
01	patterned	1	64	0.9	19	../stimuli/combined/switch-0.9_chunk-500_C_G_alternating_19.mp3	36	9.946	[(None, 0.0), (36, 9.195), (36, 9.946)]	20.857743249	946.48895402	4599.10464463	948.080745059	2019_Feb_14_1305	Sound Switch 12-20-2018	318-laptop	bpl	WPH
01	patterned	1	65	0.5	5	../stimuli/combined/switch-0.5_chunk-500_C_G_alternating_05.mp3	41	16.322	[(None, 0.0), (41, 6.865), (41, 16.322)]	27.2393165297	973.733309732	4626.34899995	975.325100772	2019_Feb_14_1305	Sound Switch 12-20-2018	318-laptop	bpl	WPH
01	patterned	1	66	0.8	1	../stimuli/combined/switch-0.8_chunk-500_C_G_alternating_01.mp3	59	2.495	[(None, 0.0), (59, 1.431), (59, 2.495)]	13.4137214803	987.151829381	4639.76752039	988.743620025	2019_Feb_14_1305	Sound Switch 12-20-2018	318-laptop	bpl	WPH
01	patterned	1	67	0.8	3	../stimuli/combined/switch-0.8_chunk-500_C_G_alternating_03.mp3	45	1.85	[(None, 0.0), (45, 1.223), (45, 1.849)]	12.7676349663	999.924051133	4652.53974135	1001.51584178	2019_Feb_14_1305	Sound Switch 12-20-2018	318-laptop	bpl	WPH
01	patterned	1	68	0.7	8	../stimuli/combined/switch-0.7_chunk-500_C_G_alternating_08.mp3	54	1.072	[(None, 0.0), (54, 0.663), (54, 1.072)]	11.982077199	1011.91172422	4664.52741483	1013.50351447	2019_Feb_14_1305	Sound Switch 12-20-2018	318-laptop	bpl	WPH
01	patterned	1	69	0.3	7	../stimuli/combined/switch-0.3_chunk-500_C_G_alternating_07.mp3	38	6.072	[(None, 0.0), (38, 5.648), (38, 6.072)]	16.9773813635	1028.89465366	4681.51034427	1030.48644431	2019_Feb_14_1305	Sound Switch 12-20-2018	318-laptop	bpl	WPH
01	patterned	1	70	0.5	4	../stimuli/combined/switch-0.5_chunk-500_C_G_alternating_04.mp3	47	9.446	[(None, 0.0), (54, 7.556), (47, 8.369), (47, 9.446)]	20.3648290811	1049.26541408	4701.88110468	1050.85720432	2019_Feb_14_1305	Sound Switch 12-20-2018	318-laptop	bpl	WPH
01	patterned	1	71	0.4	3	../stimuli/combined/switch-0.4_chunk-500_C_G_alternating_03.mp3	30	17.401	[(None, 0.0), (30, 16.618), (30, 17.401)]	28.3225155929	1077.59387443	4730.20956504	1079.18566547	2019_Feb_14_1305	Sound Switch 12-20-2018	318-laptop	bpl	WPH
01	patterned	1	72	0.9	18	../stimuli/combined/switch-0.9_chunk-500_C_G_alternating_18.mp3	42	17.055	[(None, 0.0), (42, 16.381), (42, 17.054)]	27.9797547656	1105.57837166	4758.19406227	1107.1701627	2019_Feb_14_1305	Sound Switch 12-20-2018	318-laptop	bpl	WPH
01	patterned	1	73	0.1	7	../stimuli/combined/switch-0.1_chunk-500_C_G_alternating_07.mp3	52	8.607	[(None, 0.0), (52, 6.077), (52, 8.607)]	19.5218398825	1125.10476237	4777.72045338	1126.69655341	2019_Feb_14_1305	Sound Switch 12-20-2018	318-laptop	bpl	WPH
01	patterned	1	74	0.2	8	../stimuli/combined/switch-0.2_chunk-500_C_G_alternating_08.mp3	45	6.994	[(None, 0.0), (45, 6.242), (45, 6.994)]	17.9012527233	1143.01078323	4795.62647384	1144.60257348	2019_Feb_14_1305	Sound Switch 12-20-2018	318-laptop	bpl	WPH
01	patterned	1	75	0.6	0	../stimuli/combined/switch-0.6_chunk-500_C_G_alternating_00.mp3	20	3.686	[(None, 0.0), (20, 3.002), (20, 3.686)]	14.6030124466	1157.6193402	4810.2350316	1159.21113124	2019_Feb_14_1305	Sound Switch 12-20-2018	318-laptop	bpl	WPH
01	patterned	1	76	0.1	8	../stimuli/combined/switch-0.1_chunk-500_C_G_alternating_08.mp3	47	9.892	[(None, 0.0), (47, 9.125), (47, 9.892)]	20.8134897901	1178.43739228	4831.05308368	1180.02918411	2019_Feb_14_1305	Sound Switch 12-20-2018	318-laptop	bpl	WPH
01	patterned	1	77	0.1	4	../stimuli/combined/switch-0.1_chunk-500_C_G_alternating_04.mp3	100	2.242	[(None, 0.0), (100, 1.318), (100, 2.242)]	13.1681085404	1191.61090746	4844.22659807	1193.20269771	2019_Feb_14_1305	Sound Switch 12-20-2018	318-laptop	bpl	WPH
01	patterned	1	78	0.7	19	../stimuli/combined/switch-0.7_chunk-500_C_G_alternating_19.mp3	54	20.168	[(None, 0.0), (54, 2.215), (54, 20.168)]	31.0826597434	1222.72113019	4875.3368208	1224.31292163	2019_Feb_14_1305	Sound Switch 12-20-2018	318-laptop	bpl	WPH
01	patterned	1	79	0.1	5	../stimuli/combined/switch-0.1_chunk-500_C_G_alternating_05.mp3	65	1.758	[(None, 0.0), (65, 1.162), (65, 1.757)]	12.6692468409	1235.39509974	4888.01078995	1236.98688999	2019_Feb_14_1305	Sound Switch 12-20-2018	318-laptop	bpl	WPH
01	patterned	1	80	0.5	2	../stimuli/combined/switch-0.5_chunk-500_C_G_alternating_02.mp3	57	13.302	[(None, 0.0), (47, 11.1), (57, 12.459), (57, 13.302)]	24.2267904824	1259.62706729	4912.24275751	1261.21885754	2019_Feb_14_1305	Sound Switch 12-20-2018	318-laptop	bpl	WPH
01	patterned	1	81	0.5	0	../stimuli/combined/switch-0.5_chunk-500_C_G_alternating_00.mp3	36	15.86	[(None, 0.0), (36, 4.964), (36, 15.86)]	26.7811215164	1286.41267998	4939.02837059	1288.00447063	2019_Feb_14_1305	Sound Switch 12-20-2018	318-laptop	bpl	WPH
01	patterned	1	82	0.6	6	../stimuli/combined/switch-0.6_chunk-500_C_G_alternating_06.mp3	22	2.242	[(None, 0.0), (22, 1.631), (22, 2.242)]	13.1624154572	1299.58108248	4952.19677309	1301.17287273	2019_Feb_14_1305	Sound Switch 12-20-2018	318-laptop	bpl	WPH
01	patterned	1	83	0.4	4	../stimuli/combined/switch-0.4_chunk-500_C_G_alternating_04.mp3	49	21.748	[(None, 0.0), (49, 21.024), (49, 21.748)]	32.6510968539	1332.23667367	4984.85236428	1333.8284647	2019_Feb_14_1305	Sound Switch 12-20-2018	318-laptop	bpl	WPH
01	patterned	1	84	0.2	10	../stimuli/combined/switch-0.2_chunk-500_C_G_alternating_10.mp3	43	12.1	[(None, 0.0), (43, 11.536), (43, 12.1)]	23.0146422354	1355.25684264	5007.87253286	1356.84863289	2019_Feb_14_1305	Sound Switch 12-20-2018	318-laptop	bpl	WPH
01	patterned	1	85	0.8	0	../stimuli/combined/switch-0.8_chunk-500_C_G_alternating_00.mp3	39	6.199	[(None, 0.0), (39, 4.479), (39, 6.199)]	17.1152508568	1372.37803985	5024.99373046	1373.96983049	2019_Feb_14_1305	Sound Switch 12-20-2018	318-laptop	bpl	WPH
01	patterned	1	86	0.9	16	../stimuli/combined/switch-0.9_chunk-500_C_G_alternating_16.mp3	93	1.667	[(None, 0.0), (93, 0.85), (93, 1.667)]	12.589062437	1384.97234337	5037.58803358	1386.56413401	2019_Feb_14_1305	Sound Switch 12-20-2018	318-laptop	bpl	WPH
01	patterned	1	87	0.3	2	../stimuli/combined/switch-0.3_chunk-500_C_G_alternating_02.mp3	14	2.294	[(None, 0.0), (14, 1.87), (14, 2.294)]	13.213511758	1398.19136725	5050.80705825	1399.78315829	2019_Feb_14_1305	Sound Switch 12-20-2018	318-laptop	bpl	WPH
01	patterned	1	88	0.8	11	../stimuli/combined/switch-0.8_chunk-500_C_G_alternating_11.mp3	54	1.837	[(None, 0.0), (54, 1.303), (54, 1.837)]	12.7569836971	1410.95416651	5063.56985791	1412.54595834	2019_Feb_14_1305	Sound Switch 12-20-2018	318-laptop	bpl	WPH
01	patterned	1	89	0.2	12	../stimuli/combined/switch-0.2_chunk-500_C_G_alternating_12.mp3	41	3.232	[(None, 0.0), (41, 2.73), (41, 3.232)]	14.1524327075	1425.1122923	5077.72798252	1426.70408216	2019_Feb_14_1305	Sound Switch 12-20-2018	318-laptop	bpl	WPH
01	patterned	1	90	0.6	16	../stimuli/combined/switch-0.6_chunk-500_C_G_alternating_16.mp3	39	4.043	[(None, 0.0), (37, 3.413), (38, 3.464), (39, 3.54), (39, 4.043)]	14.9639023203	1440.08173757	5092.69742778	1441.67352742	2019_Feb_14_1305	Sound Switch 12-20-2018	318-laptop	bpl	WPH
01	patterned	1	91	0.8	2	../stimuli/combined/switch-0.8_chunk-500_C_G_alternating_02.mp3	30	12.92	[(None, 0.0), (42, 5.54), (43, 5.855), (41, 6.545), (40, 6.952), (39, 7.013), (38, 7.044), (37, 7.075), (36, 7.325), (35, 7.559), (34, 7.699), (33, 8.183), (32, 8.261), (31, 8.292), (30, 8.339), (31, 9.727), (32, 9.79), (31, 10.835), (30, 10.985), (30, 12.92)]	23.8301458811	1463.91764844	5116.53333905	1465.50943948	2019_Feb_14_1305	Sound Switch 12-20-2018	318-laptop	bpl	WPH
01	patterned	1	92	0.3	9	../stimuli/combined/switch-0.3_chunk-500_C_G_alternating_09.mp3	29	2.819	[(None, 0.0), (29, 2.13), (29, 2.819)]	13.7236612424	1477.64732675	5130.26301736	1479.2391174	2019_Feb_14_1305	Sound Switch 12-20-2018	318-laptop	bpl	WPH
01	patterned	1	93	0.2	13	../stimuli/combined/switch-0.2_chunk-500_C_G_alternating_13.mp3	55	2.497	[(None, 0.0), (55, 1.729), (55, 2.497)]	13.4058007891	1491.05754404	5143.67323346	1492.64933271	2019_Feb_14_1305	Sound Switch 12-20-2018	318-laptop	bpl	WPH
01	patterned	1	94	0.2	9	../stimuli/combined/switch-0.2_chunk-500_C_G_alternating_09.mp3	44	2.527	[(None, 0.0), (44, 1.588), (44, 2.527)]	13.3837333255	1504.44373334	5157.05942435	1506.03552399	2019_Feb_14_1305	Sound Switch 12-20-2018	318-laptop	bpl	WPH
01	patterned	1	95	0.8	12	../stimuli/combined/switch-0.8_chunk-500_C_G_alternating_12.mp3	56	8.725	[(None, 0.0), (56, 8.316), (56, 8.725)]	19.6318879827	1524.08023616	5176.69592677	1525.67202681	2019_Feb_14_1305	Sound Switch 12-20-2018	318-laptop	bpl	WPH
01	patterned	1	96	0.7	2	../stimuli/combined/switch-0.7_chunk-500_C_G_alternating_02.mp3	45	3.637	[(None, 0.0), (45, 3.214), (45, 3.637)]	14.5308558076	1538.61672658	5191.23241679	1540.20851683	2019_Feb_14_1305	Sound Switch 12-20-2018	318-laptop	bpl	WPH
01	patterned	1	97	0.6	15	../stimuli/combined/switch-0.6_chunk-500_C_G_alternating_15.mp3	36	17.839	[(None, 0.0), (34, 17.103), (36, 17.231), (36, 17.839)]	28.753876188	1567.37623421	5219.99192482	1568.96802486	2019_Feb_14_1305	Sound Switch 12-20-2018	318-laptop	bpl	WPH
01	patterned	1	98	0.2	11	../stimuli/combined/switch-0.2_chunk-500_C_G_alternating_11.mp3	48	8.574	[(None, 0.0), (48, 8.166), (48, 8.574)]	19.4970710788	1586.87802602	5239.49371702	1588.46981745	2019_Feb_14_1305	Sound Switch 12-20-2018	318-laptop	bpl	WPH
01	patterned	1	99	0.4	0	../stimuli/combined/switch-0.4_chunk-500_C_G_alternating_00.mp3	29	11.435	[(None, 0.0), (29, 10.745), (29, 11.434)]	22.3592624318	1609.24195979	5261.85765079	1610.83375083	2019_Feb_14_1305	Sound Switch 12-20-2018	318-laptop	bpl	WPH
01	patterned	1	100	0.7	0	../stimuli/combined/switch-0.7_chunk-500_C_G_alternating_00.mp3	42	35.679	[(None, 0.0), (39, 3.208), (38, 3.288), (37, 3.476), (36, 3.554), (35, 3.585), (34, 3.6), (33, 3.648), (32, 3.851), (31, 3.897), (30, 3.928), (29, 3.975), (28, 4.037), (42, 9.363), (42, 35.678)]	46.5847664489	1655.8321704	5308.4478622	1657.42396302	2019_Feb_14_1305	Sound Switch 12-20-2018	318-laptop	bpl	WPH
01	patterned	1	101	0.2	16	../stimuli/combined/switch-0.2_chunk-500_C_G_alternating_16.mp3	30	2.466	[(None, 0.0), (30, 1.932), (30, 2.466)]	13.37674627	1669.2261113	5321.8418019	1670.81790154	2019_Feb_14_1305	Sound Switch 12-20-2018	318-laptop	bpl	WPH
01	patterned	1	102	0.9	5	../stimuli/combined/switch-0.9_chunk-500_C_G_alternating_05.mp3	68	2.086	[(None, 0.0), (68, 1.427), (68, 2.086)]	13.0078282363	1682.23931337	5334.85500398	1683.83110362	2019_Feb_14_1305	Sound Switch 12-20-2018	318-laptop	bpl	WPH
01	patterned	1	103	0.4	17	../stimuli/combined/switch-0.4_chunk-500_C_G_alternating_17.mp3	12	2.268	[(None, 0.0), (12, 1.146), (12, 2.268)]	13.1883541699	1695.43327133	5348.04896233	1697.02506197	2019_Feb_14_1305	Sound Switch 12-20-2018	318-laptop	bpl	WPH
01	patterned	1	104	0.2	14	../stimuli/combined/switch-0.2_chunk-500_C_G_alternating_14.mp3	20	0.98	[(None, 0.0), (21, 0.478), (20, 0.503), (20, 0.98)]	11.9014783288	1707.33924557	5359.95493618	1708.93103621	2019_Feb_14_1305	Sound Switch 12-20-2018	318-laptop	bpl	WPH
01	patterned	1	105	0.2	2	../stimuli/combined/switch-0.2_chunk-500_C_G_alternating_02.mp3	5	1.898	[(None, 0.0), (5, 1.411), (5, 1.898)]	12.817576372	1720.16343523	5372.77912584	1721.75522587	2019_Feb_14_1305	Sound Switch 12-20-2018	318-laptop	bpl	WPH
01	patterned	1	106	0.2	19	../stimuli/combined/switch-0.2_chunk-500_C_G_alternating_19.mp3	73	3.102	[(None, 0.0), (73, 2.521), (73, 3.102)]	14.0207865297	1734.18964814	5386.80533954	1735.78143997	2019_Feb_14_1305	Sound Switch 12-20-2018	318-laptop	bpl	WPH
01	patterned	1	107	0.3	17	../stimuli/combined/switch-0.3_chunk-500_C_G_alternating_17.mp3	10	2.902	[(None, 0.0), (10, 2.338), (10, 2.902)]	13.8239154536	1748.01918003	5400.63487064	1749.61097067	2019_Feb_14_1305	Sound Switch 12-20-2018	318-laptop	bpl	WPH
01	patterned	1	108	0.4	8	../stimuli/combined/switch-0.4_chunk-500_C_G_alternating_08.mp3	26	2.386	[(None, 0.0), (26, 1.915), (26, 2.386)]	13.3063142689	1761.33097205	5413.94666266	1762.92276269	2019_Feb_14_1305	Sound Switch 12-20-2018	318-laptop	bpl	WPH
01	patterned	1	109	0.7	1	../stimuli/combined/switch-0.7_chunk-500_C_G_alternating_01.mp3	35	1.116	[(None, 0.0), (34, 0.693), (35, 0.723), (35, 1.116)]	12.0429966266	1773.39791368	5426.0136039	1774.98970393	2019_Feb_14_1305	Sound Switch 12-20-2018	318-laptop	bpl	WPH
01	patterned	1	110	0.5	11	../stimuli/combined/switch-0.5_chunk-500_C_G_alternating_11.mp3	14	2.256	[(None, 0.0), (14, 1.597), (14, 2.256)]	13.1785768754	1786.5809197	5439.19661031	1788.17271034	2019_Feb_14_1305	Sound Switch 12-20-2018	318-laptop	bpl	WPH
01	patterned	1	111	0.3	4	../stimuli/combined/switch-0.3_chunk-500_C_G_alternating_04.mp3	35	2.897	[(None, 0.0), (35, 2.395), (35, 2.897)]	13.8259624981	1800.41242553	5453.02811614	1802.00421578	2019_Feb_14_1305	Sound Switch 12-20-2018	318-laptop	bpl	WPH
01	patterned	1	112	0.5	19	../stimuli/combined/switch-0.5_chunk-500_C_G_alternating_19.mp3	31	11.398	[(None, 0.0), (31, 11.083), (31, 11.398)]	22.3181247792	1822.73595773	5475.35164795	1824.32774759	2019_Feb_14_1305	Sound Switch 12-20-2018	318-laptop	bpl	WPH
01	patterned	1	113	0.4	12	../stimuli/combined/switch-0.4_chunk-500_C_G_alternating_12.mp3	8	1.245	[(None, 0.0), (8, 0.759), (8, 1.245)]	12.1673376885	1834.90883046	5487.52452107	1836.50062111	2019_Feb_14_1305	Sound Switch 12-20-2018	318-laptop	bpl	WPH
01	patterned	1	114	0.6	1	../stimuli/combined/switch-0.6_chunk-500_C_G_alternating_01.mp3	77	2.188	[(None, 0.0), (77, 1.764), (77, 2.188)]	13.0959443944	1848.01010444	5500.62579466	1849.60189509	2019_Feb_14_1305	Sound Switch 12-20-2018	318-laptop	bpl	WPH
01	patterned	1	115	0.3	11	../stimuli/combined/switch-0.3_chunk-500_C_G_alternating_11.mp3	66	1.432	[(None, 0.0), (68, 0.899), (67, 0.948), (66, 0.959), (66, 1.432)]	12.3541023467	1860.36870665	5512.98439726	1861.9604973	2019_Feb_14_1305	Sound Switch 12-20-2018	318-laptop	bpl	WPH
01	patterned	1	116	0.2	18	../stimuli/combined/switch-0.2_chunk-500_C_G_alternating_18.mp3	33	1.96	[(None, 0.0), (33, 1.333), (33, 1.96)]	12.8966536887	1873.27076618	5525.8864564	1874.86255722	2019_Feb_14_1305	Sound Switch 12-20-2018	318-laptop	bpl	WPH
01	patterned	1	117	0.3	5	../stimuli/combined/switch-0.3_chunk-500_C_G_alternating_05.mp3	28	2.483	[(None, 0.0), (28, 1.496), (28, 2.483)]	13.4033408588	1886.67995935	5539.29564996	1888.2717496	2019_Feb_14_1305	Sound Switch 12-20-2018	318-laptop	bpl	WPH
01	patterned	1	118	0.2	1	../stimuli/combined/switch-0.2_chunk-500_C_G_alternating_01.mp3	27	1.604	[(None, 0.0), (29, 1.086), (28, 1.112), (27, 1.135), (27, 1.603)]	12.5235909925	1899.2089064	5551.82459701	1900.80069705	2019_Feb_14_1305	Sound Switch 12-20-2018	318-laptop	bpl	WPH
01	patterned	1	119	0.9	4	../stimuli/combined/switch-0.9_chunk-500_C_G_alternating_04.mp3	61	1.316	[(None, 0.0), (61, 0.892), (61, 1.316)]	12.231423496	1911.44513399	5564.0608246	1913.03692464	2019_Feb_14_1305	Sound Switch 12-20-2018	318-laptop	bpl	WPH
01	patterned	1	120	0.1	11	../stimuli/combined/switch-0.1_chunk-500_C_G_alternating_11.mp3	42	2.898	[(None, 0.0), (42, 2.458), (42, 2.898)]	13.8191812928	1925.26875193	5577.88444254	1926.86054218	2019_Feb_14_1305	Sound Switch 12-20-2018	318-laptop	bpl	WPH
01	patterned	1	121	0.1	16	../stimuli/combined/switch-0.1_chunk-500_C_G_alternating_16.mp3	89	1.769	[(None, 0.0), (89, 1.204), (89, 1.769)]	12.6881692603	1937.96264312	5590.57833373	1939.55443337	2019_Feb_14_1305	Sound Switch 12-20-2018	318-laptop	bpl	WPH
01	patterned	1	122	0.3	3	../stimuli/combined/switch-0.3_chunk-500_C_G_alternating_03.mp3	56	3.74	[(None, 0.0), (56, 3.097), (56, 3.74)]	14.6598583308	1952.62831701	5605.24400723	1954.22010726	2019_Feb_14_1305	Sound Switch 12-20-2018	318-laptop	bpl	WPH
01	patterned	1	123	0.7	14	../stimuli/combined/switch-0.7_chunk-500_C_G_alternating_14.mp3	10	2.573	[(None, 0.0), (10, 1.911), (10, 2.573)]	13.4974207477	1966.1305383	5618.74622852	1967.72232855	2019_Feb_14_1305	Sound Switch 12-20-2018	318-laptop	bpl	WPH
01	patterned	1	124	0.8	6	../stimuli/combined/switch-0.8_chunk-500_C_G_alternating_06.mp3	56	1.608	[(None, 0.0), (57, 1.06), (56, 1.14), (56, 1.608)]	12.5269916704	1978.66310531	5631.27879553	1980.25489556	2019_Feb_14_1305	Sound Switch 12-20-2018	318-laptop	bpl	WPH
01	patterned	1	125	0.3	1	../stimuli/combined/switch-0.3_chunk-500_C_G_alternating_01.mp3	39	3.382	[(None, 0.0), (39, 2.206), (39, 3.382)]	14.3038002091	1992.97236628	5645.58805689	1994.56415732	2019_Feb_14_1305	Sound Switch 12-20-2018	318-laptop	bpl	WPH
01	patterned	1	126	0.8	15	../stimuli/combined/switch-0.8_chunk-500_C_G_alternating_15.mp3	38	5.538	[(None, 0.0), (38, 5.223), (38, 5.538)]	16.4640370515	2009.44189096	5662.05758157	2011.03368121	2019_Feb_14_1305	Sound Switch 12-20-2018	318-laptop	bpl	WPH
01	patterned	1	127	0.4	13	../stimuli/combined/switch-0.4_chunk-500_C_G_alternating_13.mp3	36	1.485	[(None, 0.0), (36, 1.123), (36, 1.485)]	12.406631302	2021.85304109	5674.4687317	2023.44483174	2019_Feb_14_1305	Sound Switch 12-20-2018	318-laptop	bpl	WPH
01	patterned	1	128	0.7	3	../stimuli/combined/switch-0.7_chunk-500_C_G_alternating_03.mp3	33	2.398	[(None, 0.0), (33, 2.052), (33, 2.398)]	13.3023138201	2035.17630185	5687.79199246	2036.7680925	2019_Feb_14_1305	Sound Switch 12-20-2018	318-laptop	bpl	WPH
01	patterned	1	129	0.6	8	../stimuli/combined/switch-0.6_chunk-500_C_G_alternating_08.mp3	65	1.659	[(None, 0.0), (65, 1.001), (65, 1.659)]	12.5778544635	2047.75971625	5700.37540647	2049.3515061	2019_Feb_14_1305	Sound Switch 12-20-2018	318-laptop	bpl	WPH
01	patterned	1	130	0.1	3	../stimuli/combined/switch-0.1_chunk-500_C_G_alternating_03.mp3	52	2.414	[(None, 0.0), (52, 1.956), (52, 2.414)]	13.3200920123	2061.08416075	5713.69985136	2062.6759514	2019_Feb_14_1305	Sound Switch 12-20-2018	318-laptop	bpl	WPH
01	patterned	1	131	0.1	10	../stimuli/combined/switch-0.1_chunk-500_C_G_alternating_10.mp3	70	1.789	[(None, 0.0), (70, 1.271), (70, 1.789)]	12.6996419549	2073.78935474	5726.40504535	2075.38114459	2019_Feb_14_1305	Sound Switch 12-20-2018	318-laptop	bpl	WPH
01	patterned	1	132	0.8	17	../stimuli/combined/switch-0.8_chunk-500_C_G_alternating_17.mp3	73	1.375	[(None, 0.0), (73, 0.842), (73, 1.375)]	12.3031506547	2086.09795311	5738.71364372	2087.68974336	2019_Feb_14_1305	Sound Switch 12-20-2018	318-laptop	bpl	WPH
01	patterned	1	133	0.4	19	../stimuli/combined/switch-0.4_chunk-500_C_G_alternating_19.mp3	36	3.634	[(None, 0.0), (57, 1.23), (40, 2.496), (36, 3.26), (36, 3.634)]	14.5452100107	2100.64869777	5753.26438877	2102.24048841	2019_Feb_14_1305	Sound Switch 12-20-2018	318-laptop	bpl	WPH
01	patterned	1	134	0.3	6	../stimuli/combined/switch-0.3_chunk-500_C_G_alternating_06.mp3	31	3.823	[(None, 0.0), (30, 3.007), (31, 3.071), (31, 3.823)]	14.7422450558	2115.39601757	5768.01170818	2116.987809	2019_Feb_14_1305	Sound Switch 12-20-2018	318-laptop	bpl	WPH
01	patterned	1	135	0.8	7	../stimuli/combined/switch-0.8_chunk-500_C_G_alternating_07.mp3	55	3.678	[(None, 0.0), (55, 3.287), (55, 3.677)]	14.5746944052	2129.97520591	5782.59089612	2131.56699655	2019_Feb_14_1305	Sound Switch 12-20-2018	318-laptop	bpl	WPH
01	patterned	1	136	0.3	18	../stimuli/combined/switch-0.3_chunk-500_C_G_alternating_18.mp3	79	1.867	[(None, 0.0), (79, 1.318), (79, 1.867)]	12.7723007737	2142.75283429	5795.3685249	2144.34462533	2019_Feb_14_1305	Sound Switch 12-20-2018	318-laptop	bpl	WPH
01	patterned	1	137	0.6	3	../stimuli/combined/switch-0.6_chunk-500_C_G_alternating_03.mp3	60	5.119	[(None, 0.0), (60, 4.492), (60, 5.119)]	16.0264270638	2158.7847802	5811.40047041	2160.37657124	2019_Feb_14_1305	Sound Switch 12-20-2018	318-laptop	bpl	WPH
01	patterned	1	138	0.8	16	../stimuli/combined/switch-0.8_chunk-500_C_G_alternating_16.mp3	17	0.917	[(None, 0.0), (17, 0.445), (17, 0.917)]	11.8389919106	2170.629061	5823.24475121	2172.22085125	2019_Feb_14_1305	Sound Switch 12-20-2018	318-laptop	bpl	WPH
01	patterned	1	139	0.3	19	../stimuli/combined/switch-0.3_chunk-500_C_G_alternating_19.mp3	15	6.98	[(None, 0.0), (35, 2.242), (46, 5.622), (15, 6.622), (15, 6.98)]	17.8900099804	2188.52354239	5841.1392334	2190.11533304	2019_Feb_14_1305	Sound Switch 12-20-2018	318-laptop	bpl	WPH
01	patterned	1	140	0.6	2	../stimuli/combined/switch-0.6_chunk-500_C_G_alternating_02.mp3	25	7.178	[(None, 0.0), (24, 6.504), (25, 6.6), (25, 7.178)]	18.0882042667	2206.6438435	5859.25953411	2208.23563375	2019_Feb_14_1305	Sound Switch 12-20-2018	318-laptop	bpl	WPH
01	patterned	1	141	0.7	4	../stimuli/combined/switch-0.7_chunk-500_C_G_alternating_04.mp3	35	5.541	[(None, 0.0), (35, 5.238), (35, 5.541)]	16.4520562505	2223.10015069	5875.7158413	2224.69194094	2019_Feb_14_1305	Sound Switch 12-20-2018	318-laptop	bpl	WPH
01	patterned	1	142	0.7	18	../stimuli/combined/switch-0.7_chunk-500_C_G_alternating_18.mp3	53	5.446	[(None, 0.0), (53, 4.975), (53, 5.446)]	16.365592426	2239.47530548	5892.09099609	2241.06709612	2019_Feb_14_1305	Sound Switch 12-20-2018	318-laptop	bpl	WPH
01	patterned	1	143	0.7	7	../stimuli/combined/switch-0.7_chunk-500_C_G_alternating_07.mp3	36	4.275	[(None, 0.0), (35, 3.914), (36, 3.939), (36, 4.275)]	15.1961496124	2254.67602726	5907.29171747	2256.26781711	2019_Feb_14_1305	Sound Switch 12-20-2018	318-laptop	bpl	WPH
01	patterned	1	144	0.1	1	../stimuli/combined/switch-0.1_chunk-500_C_G_alternating_01.mp3	37	0.994	[(None, 0.0), (37, 0.663), (37, 0.994)]	11.9043503548	2266.58497309	5919.2006637	2268.17676413	2019_Feb_14_1305	Sound Switch 12-20-2018	318-laptop	bpl	WPH
01	patterned	1	145	0.9	13	../stimuli/combined/switch-0.9_chunk-500_C_G_alternating_13.mp3	70	1.358	[(None, 0.0), (72, 0.997), (71, 1.022), (70, 1.046), (70, 1.358)]	12.2613670037	2278.85188422	5931.46757444	2280.44367408	2019_Feb_14_1305	Sound Switch 12-20-2018	318-laptop	bpl	WPH
01	patterned	1	146	0.8	13	../stimuli/combined/switch-0.8_chunk-500_C_G_alternating_13.mp3	34	4.356	[(None, 0.0), (66, 2.133), (34, 3.887), (34, 4.356)]	15.2725935473	2294.13015702	5946.74584724	2295.72194727	2019_Feb_14_1305	Sound Switch 12-20-2018	318-laptop	bpl	WPH
01	patterned	1	147	0.6	18	../stimuli/combined/switch-0.6_chunk-500_C_G_alternating_18.mp3	29	1.777	[(None, 0.0), (25, 1.447), (26, 1.472), (27, 1.496), (28, 1.527), (29, 1.543), (29, 1.777)]	12.6823023304	2306.81790075	5959.43359097	2308.409691	2019_Feb_14_1305	Sound Switch 12-20-2018	318-laptop	bpl	WPH
01	patterned	1	148	0.9	0	../stimuli/combined/switch-0.9_chunk-500_C_G_alternating_00.mp3	58	4.237	[(None, 0.0), (59, 2.256), (58, 3.039), (58, 4.237)]	15.1590851082	2321.98247112	5974.59816173	2323.57426176	2019_Feb_14_1305	Sound Switch 12-20-2018	318-laptop	bpl	WPH
01	patterned	1	149	0.9	11	../stimuli/combined/switch-0.9_chunk-500_C_G_alternating_11.mp3	48	5.331	[(None, 0.0), (48, 4.673), (48, 5.331)]	16.2361106392	2338.22417488	5990.83986549	2339.81596552	2019_Feb_14_1305	Sound Switch 12-20-2018	318-laptop	bpl	WPH
01	patterned	1	150	0.4	5	../stimuli/combined/switch-0.4_chunk-500_C_G_alternating_05.mp3	55	1.213	[(None, 0.0), (55, 0.836), (55, 1.213)]	12.1179233542	2350.34653251	6002.96222272	2351.93832315	2019_Feb_14_1305	Sound Switch 12-20-2018	318-laptop	bpl	WPH
01	patterned	1	151	0.6	7	../stimuli/combined/switch-0.6_chunk-500_C_G_alternating_07.mp3	53	2.262	[(None, 0.0), (53, 1.698), (53, 2.262)]	13.1736661022	2363.52574235	6016.14143295	2365.11753299	2019_Feb_14_1305	Sound Switch 12-20-2018	318-laptop	bpl	WPH
01	patterned	1	152	0.2	6	../stimuli/combined/switch-0.2_chunk-500_C_G_alternating_06.mp3	61	2.086	[(None, 0.0), (61, 1.771), (61, 2.086)]	12.9923657607	2376.52251946	6029.13820968	2378.11430971	2019_Feb_14_1305	Sound Switch 12-20-2018	318-laptop	bpl	WPH
01	patterned	1	153	0.6	11	../stimuli/combined/switch-0.6_chunk-500_C_G_alternating_11.mp3	34	6.186	[(None, 0.0), (34, 5.918), (34, 6.186)]	17.0896736661	2393.61748795	6046.23317816	2395.2092778	2019_Feb_14_1305	Sound Switch 12-20-2018	318-laptop	bpl	WPH
01	patterned	1	154	0.1	13	../stimuli/combined/switch-0.1_chunk-500_C_G_alternating_13.mp3	100	3.821	[(None, 0.0), (100, 3.007), (100, 3.821)]	14.7266589121	2408.34847485	6060.96416507	2409.9402651	2019_Feb_14_1305	Sound Switch 12-20-2018	318-laptop	bpl	WPH
01	patterned	1	155	0.3	8	../stimuli/combined/switch-0.3_chunk-500_C_G_alternating_08.mp3	58	3.66	[(None, 0.0), (58, 3.251), (58, 3.66)]	14.5750235286	2422.92928945	6075.54497927	2424.5210793	2019_Feb_14_1305	Sound Switch 12-20-2018	318-laptop	bpl	WPH
01	patterned	1	156	0.7	6	../stimuli/combined/switch-0.7_chunk-500_C_G_alternating_06.mp3	58	1.541	[(None, 0.0), (58, 0.992), (58, 1.541)]	12.4611010183	2435.39569477	6088.01138538	2436.98748581	2019_Feb_14_1305	Sound Switch 12-20-2018	318-laptop	bpl	WPH
01	patterned	1	157	0.5	16	../stimuli/combined/switch-0.5_chunk-500_C_G_alternating_16.mp3	14	1.101	[(None, 0.0), (8, 0.41), (10, 0.475), (11, 0.49), (12, 0.506), (14, 0.522), (14, 1.101)]	12.0144328292	2447.41477523	6100.03046544	2449.00656548	2019_Feb_14_1305	Sound Switch 12-20-2018	318-laptop	bpl	WPH
01	patterned	1	158	0.9	1	../stimuli/combined/switch-0.9_chunk-500_C_G_alternating_01.mp3	25	1.09	[(None, 0.0), (26, 0.712), (25, 0.737), (25, 1.09)]	11.9959153936	2459.41509605	6112.03078666	2461.0068863	2019_Feb_14_1305	Sound Switch 12-20-2018	318-laptop	bpl	WPH
01	patterned	1	159	0.6	10	../stimuli/combined/switch-0.6_chunk-500_C_G_alternating_10.mp3	38	2.311	[(None, 0.0), (38, 1.965), (38, 2.311)]	13.2215292501	2472.64110699	6125.25679721	2474.23289724	2019_Feb_14_1305	Sound Switch 12-20-2018	318-laptop	bpl	WPH
01	patterned	1	160	0.4	1	../stimuli/combined/switch-0.4_chunk-500_C_G_alternating_01.mp3	34	2.322	[(None, 0.0), (32, 1.274), (33, 1.369), (34, 1.385), (34, 2.322)]	13.2383366667	2485.8847926	6138.50048321	2487.47658325	2019_Feb_14_1305	Sound Switch 12-20-2018	318-laptop	bpl	WPH
01	patterned	1	161	0.2	17	../stimuli/combined/switch-0.2_chunk-500_C_G_alternating_17.mp3	33	1.774	[(None, 0.0), (33, 1.459), (33, 1.774)]	12.6950030147	2498.5852228	6151.20091301	2500.17701305	2019_Feb_14_1305	Sound Switch 12-20-2018	318-laptop	bpl	WPH
01	patterned	1	162	0.1	9	../stimuli/combined/switch-0.1_chunk-500_C_G_alternating_09.mp3	30	1.858	[(None, 0.0), (65, 0.716), (33, 1.562), (32, 1.577), (31, 1.593), (30, 1.655), (30, 1.858)]	12.7621998873	2511.35180085	6163.96749146	2512.9435911	2019_Feb_14_1305	Sound Switch 12-20-2018	318-laptop	bpl	WPH
01	patterned	1	163	0.3	15	../stimuli/combined/switch-0.3_chunk-500_C_G_alternating_15.mp3	40	2.275	[(None, 0.0), (40, 1.88), (40, 2.275)]	13.1795938784	2524.53591237	6177.15160298	2526.12770262	2019_Feb_14_1305	Sound Switch 12-20-2018	318-laptop	bpl	WPH
01	patterned	1	164	0.9	2	../stimuli/combined/switch-0.9_chunk-500_C_G_alternating_02.mp3	88	1.998	[(None, 0.0), (88, 1.444), (88, 1.998)]	12.9279690047	2537.46777554	6190.08346576	2539.0595654	2019_Feb_14_1305	Sound Switch 12-20-2018	318-laptop	bpl	WPH
01	patterned	1	165	0.2	7	../stimuli/combined/switch-0.2_chunk-500_C_G_alternating_07.mp3	73	2.618	[(None, 0.0), (73, 2.195), (73, 2.618)]	13.5137564076	2550.9996689	6203.6153603	2552.59145994	2019_Feb_14_1305	Sound Switch 12-20-2018	318-laptop	bpl	WPH
01	patterned	1	166	0.5	6	../stimuli/combined/switch-0.5_chunk-500_C_G_alternating_06.mp3	63	1.587	[(None, 0.0), (63, 1.288), (63, 1.587)]	12.501970789	2563.50703012	6216.12272073	2565.09882077	2019_Feb_14_1305	Sound Switch 12-20-2018	318-laptop	bpl	WPH
01	patterned	1	167	0.5	14	../stimuli/combined/switch-0.5_chunk-500_C_G_alternating_14.mp3	29	2.108	[(None, 0.0), (29, 1.794), (29, 2.108)]	13.0192748539	2576.53074478	6229.14643539	2578.12253503	2019_Feb_14_1305	Sound Switch 12-20-2018	318-laptop	bpl	WPH
01	patterned	1	168	0.3	0	../stimuli/combined/switch-0.3_chunk-500_C_G_alternating_00.mp3	39	1.915	[(None, 0.0), (41, 1.663), (40, 1.688), (39, 1.712), (39, 1.915)]	12.8290115316	2589.36528503	6241.98097604	2590.95707607	2019_Feb_14_1305	Sound Switch 12-20-2018	318-laptop	bpl	WPH
01	patterned	1	169	0.5	13	../stimuli/combined/switch-0.5_chunk-500_C_G_alternating_13.mp3	38	1.764	[(None, 0.0), (38, 1.122), (38, 1.764)]	12.6698035454	2602.039398	6254.65508822	2603.63118825	2019_Feb_14_1305	Sound Switch 12-20-2018	318-laptop	bpl	WPH
01	patterned	1	170	0.5	8	../stimuli/combined/switch-0.5_chunk-500_C_G_alternating_08.mp3	57	0.901	[(None, 0.0), (61, 0.601), (58, 0.823), (57, 0.838), (57, 0.901)]	11.8059807994	2613.85092411	6266.46661472	2615.44271436	2019_Feb_14_1305	Sound Switch 12-20-2018	318-laptop	bpl	WPH
01	patterned	1	171	0.9	8	../stimuli/combined/switch-0.9_chunk-500_C_G_alternating_08.mp3	64	1.951	[(None, 0.0), (64, 1.278), (65, 1.327), (64, 1.389), (64, 1.951)]	12.8702878664	2626.72673517	6279.34242617	2628.31852581	2019_Feb_14_1305	Sound Switch 12-20-2018	318-laptop	bpl	WPH
01	patterned	1	172	0.4	15	../stimuli/combined/switch-0.4_chunk-500_C_G_alternating_15.mp3	47	2.837	[(None, 0.0), (47, 2.351), (47, 2.837)]	13.7459622136	2640.47728812	6293.09297873	2642.06907916	2019_Feb_14_1305	Sound Switch 12-20-2018	318-laptop	bpl	WPH
01	patterned	1	173	0.8	8	../stimuli/combined/switch-0.8_chunk-500_C_G_alternating_08.mp3	41	2.339	[(None, 0.0), (32, 1.397), (41, 2.057), (41, 2.339)]	13.2430407994	2653.72565653	6306.34134674	2655.31744678	2019_Feb_14_1305	Sound Switch 12-20-2018	318-laptop	bpl	WPH
01	patterned	1	174	0.5	3	../stimuli/combined/switch-0.5_chunk-500_C_G_alternating_03.mp3	59	0.859	[(None, 0.0), (59, 0.56), (59, 0.859)]	11.7638407628	2665.49398807	6318.10967868	2667.08577871	2019_Feb_14_1305	Sound Switch 12-20-2018	318-laptop	bpl	WPH
01	patterned	1	175	0.4	16	../stimuli/combined/switch-0.4_chunk-500_C_G_alternating_16.mp3	47	1.68	[(None, 0.0), (47, 1.178), (47, 1.68)]	12.5865598353	2678.08529747	6330.70098769	2679.67708851	2019_Feb_14_1305	Sound Switch 12-20-2018	318-laptop	bpl	WPH
01	patterned	1	176	0.1	14	../stimuli/combined/switch-0.1_chunk-500_C_G_alternating_14.mp3	40	1.078	[(None, 0.0), (39, 0.794), (40, 0.891), (40, 1.078)]	11.9836908121	2690.07307803	6342.68876824	2691.66486828	2019_Feb_14_1305	Sound Switch 12-20-2018	318-laptop	bpl	WPH
01	patterned	1	177	0.9	10	../stimuli/combined/switch-0.9_chunk-500_C_G_alternating_10.mp3	80	0.778	[(None, 0.0), (80, 0.432), (80, 0.778)]	11.6976522008	2701.77605073	6354.39174252	2703.36784374	2019_Feb_14_1305	Sound Switch 12-20-2018	318-laptop	bpl	WPH
01	patterned	1	178	0.8	9	../stimuli/combined/switch-0.8_chunk-500_C_G_alternating_09.mp3	38	1.338	[(None, 0.0), (38, 1.07), (38, 1.338)]	12.2416361974	2714.02322433	6366.63891494	2715.61501498	2019_Feb_14_1305	Sound Switch 12-20-2018	318-laptop	bpl	WPH
01	patterned	1	179	0.4	18	../stimuli/combined/switch-0.4_chunk-500_C_G_alternating_18.mp3	31	0.784	[(None, 0.0), (26, 0.475), (27, 0.5), (28, 0.524), (29, 0.539), (30, 0.571), (31, 0.586), (31, 0.784)]	11.6791991674	2725.70677994	6378.32247055	2727.29857059	2019_Feb_14_1305	Sound Switch 12-20-2018	318-laptop	bpl	WPH
01	patterned	1	180	0.2	15	../stimuli/combined/switch-0.2_chunk-500_C_G_alternating_15.mp3	18	6.418	[(None, 0.0), (18, 5.806), (18, 6.418)]	17.3280581406	2743.03942447	6395.65511508	2744.63121472	2019_Feb_14_1305	Sound Switch 12-20-2018	318-laptop	bpl	WPH
01	patterned	2	181	0.1	7	../stimuli/combined/switch-0.1_chunk-500_C_G_alternating_07.mp3	39	1.0	[(None, 0.0), (40, 0.669), (39, 0.719), (39, 1.0)]	11.9185425644	11.9190937373	6410.25305279	2759.22915243	2019_Feb_14_1305	Sound Switch 12-20-2018	318-laptop	bpl	WPH
01	patterned	2	182	0.6	3	../stimuli/combined/switch-0.6_chunk-500_C_G_alternating_03.mp3	71	0.635	[(None, 0.0), (73, 0.351), (72, 0.416), (71, 0.447), (71, 0.635)]	11.5402399716	23.4639260267	6421.79788508	2770.77398669	2019_Feb_14_1305	Sound Switch 12-20-2018	318-laptop	bpl	WPH
01	patterned	2	183	0.9	4	../stimuli/combined/switch-0.9_chunk-500_C_G_alternating_04.mp3	65	0.868	[(None, 0.0), (65, 0.481), (66, 0.505), (65, 0.576), (65, 0.868)]	11.7782467248	35.2476034842	6433.58156214	2782.55766178	2019_Feb_14_1305	Sound Switch 12-20-2018	318-laptop	bpl	WPH
01	patterned	2	184	0.9	19	../stimuli/combined/switch-0.9_chunk-500_C_G_alternating_19.mp3	50	0.902	[(None, 0.0), (50, 0.649), (50, 0.901)]	11.8214310267	47.0747852796	6445.40874393	2794.38484397	2019_Feb_14_1305	Sound Switch 12-20-2018	318-laptop	bpl	WPH
01	patterned	2	185	0.4	2	../stimuli/combined/switch-0.4_chunk-500_C_G_alternating_02.mp3	30	2.21	[(None, 0.0), (30, 1.958), (30, 2.21)]	13.1305276325	60.2110131072	6458.54497255	2807.52107298	2019_Feb_14_1305	Sound Switch 12-20-2018	318-laptop	bpl	WPH
01	patterned	2	186	0.5	8	../stimuli/combined/switch-0.5_chunk-500_C_G_alternating_08.mp3	17	2.218	[(None, 0.0), (18, 0.531), (51, 0.86), (52, 0.907), (17, 1.828), (17, 2.218)]	13.1368975324	73.3553990848	6471.68935813	2820.66545817	2019_Feb_14_1305	Sound Switch 12-20-2018	318-laptop	bpl	WPH
01	patterned	2	187	0.8	0	../stimuli/combined/switch-0.8_chunk-500_C_G_alternating_00.mp3	57	1.992	[(None, 0.0), (57, 1.678), (57, 1.992)]	12.9122094094	86.2729665274	6484.60692518	2833.58302561	2019_Feb_14_1305	Sound Switch 12-20-2018	318-laptop	bpl	WPH
01	patterned	2	188	0.7	15	../stimuli/combined/switch-0.7_chunk-500_C_G_alternating_15.mp3	54	3.201	[(None, 0.0), (54, 2.82), (54, 3.2)]	14.1215097319	100.400021178	6498.73398023	2847.71007987	2019_Feb_14_1305	Sound Switch 12-20-2018	318-laptop	bpl	WPH
01	patterned	2	189	0.3	16	../stimuli/combined/switch-0.3_chunk-500_C_G_alternating_16.mp3	66	1.681	[(None, 0.0), (66, 0.945), (66, 1.681)]	12.5867032588	112.991112879	6511.32507272	2860.30117315	2019_Feb_14_1305	Sound Switch 12-20-2018	318-laptop	bpl	WPH
01	patterned	2	190	0.4	3	../stimuli/combined/switch-0.4_chunk-500_C_G_alternating_03.mp3	65	0.794	[(None, 0.0), (70, 0.556), (69, 0.606), (68, 0.621), (67, 0.637), (65, 0.653), (65, 0.794)]	11.7174537311	124.713863007	6523.04782206	2872.02392209	2019_Feb_14_1305	Sound Switch 12-20-2018	318-laptop	bpl	WPH
01	patterned	2	191	0.2	0	../stimuli/combined/switch-0.2_chunk-500_C_G_alternating_00.mp3	32	0.888	[(None, 0.0), (32, 0.526), (32, 0.888)]	11.8081440051	136.527571686	6534.86153074	2883.83763077	2019_Feb_14_1305	Sound Switch 12-20-2018	318-laptop	bpl	WPH
01	patterned	2	192	0.3	14	../stimuli/combined/switch-0.3_chunk-500_C_G_alternating_14.mp3	86	1.556	[(None, 0.0), (86, 1.084), (86, 1.555)]	12.4751091085	149.008226898	6547.34218555	2896.31828559	2019_Feb_14_1305	Sound Switch 12-20-2018	318-laptop	bpl	WPH
01	patterned	2	193	0.6	19	../stimuli/combined/switch-0.6_chunk-500_C_G_alternating_19.mp3	69	1.686	[(None, 0.0), (70, 1.324), (69, 1.388), (69, 1.686)]	12.5902738322	161.603754456	6559.93771351	2908.91381314	2019_Feb_14_1305	Sound Switch 12-20-2018	318-laptop	bpl	WPH
01	patterned	2	194	0.4	18	../stimuli/combined/switch-0.4_chunk-500_C_G_alternating_18.mp3	35	2.166	[(None, 0.0), (35, 1.82), (35, 2.166)]	13.0719223411	174.680382115	6573.01434116	2921.9904412	2019_Feb_14_1305	Sound Switch 12-20-2018	318-laptop	bpl	WPH
01	patterned	2	195	0.5	1	../stimuli/combined/switch-0.5_chunk-500_C_G_alternating_01.mp3	17	1.186	[(None, 0.0), (16, 0.668), (17, 0.748), (17, 1.186)]	12.0907143755	186.776384985	6585.11034443	2934.08644446	2019_Feb_14_1305	Sound Switch 12-20-2018	318-laptop	bpl	WPH
01	patterned	2	196	0.1	2	../stimuli/combined/switch-0.1_chunk-500_C_G_alternating_02.mp3	80	0.792	[(None, 0.0), (80, 0.431), (80, 0.792)]	11.7130554105	198.493939073	6596.82789852	2945.80399895	2019_Feb_14_1305	Sound Switch 12-20-2018	318-laptop	bpl	WPH
01	patterned	2	197	0.7	2	../stimuli/combined/switch-0.7_chunk-500_C_G_alternating_02.mp3	63	1.028	[(None, 0.0), (63, 0.771), (63, 1.028)]	11.9491885707	210.448838112	6608.78279716	2957.7588972	2019_Feb_14_1305	Sound Switch 12-20-2018	318-laptop	bpl	WPH
01	patterned	2	198	0.8	18	../stimuli/combined/switch-0.8_chunk-500_C_G_alternating_18.mp3	27	1.404	[(None, 0.0), (27, 1.104), (27, 1.404)]	12.3087192795	222.763256401	6621.09721506	2970.07331509	2019_Feb_14_1305	Sound Switch 12-20-2018	318-laptop	bpl	WPH
01	patterned	2	199	0.2	11	../stimuli/combined/switch-0.2_chunk-500_C_G_alternating_11.mp3	29	1.229	[(None, 0.0), (29, 0.914), (29, 1.229)]	12.1480031735	234.916615237	6633.25057389	2982.22667393	2019_Feb_14_1305	Sound Switch 12-20-2018	318-laptop	bpl	WPH
01	patterned	2	200	0.6	10	../stimuli/combined/switch-0.6_chunk-500_C_G_alternating_10.mp3	35	0.876	[(None, 0.0), (35, 0.592), (35, 0.876)]	11.7807354978	246.702669258	6645.03662791	2994.01272834	2019_Feb_14_1305	Sound Switch 12-20-2018	318-laptop	bpl	WPH
