Subject ID	Condition	Block #	Trial #	Switch Rate	Exemplar	File Name	Rating	RT	Rating History	Trial Duration	Block Duration	Session Duration	Experiment Duration	Start Date	Experiment	Testing Location	Experimenter Initials	Subject Initials
48	beautiful	1	1	0.2	10	../stimuli/combined/switch-0.2_chunk-500_C_G_alternating_10.mp3	39	2.594	[(None, 0.0), (39, 1.638), (39, 2.594)]	13.5091541558	13.5096946692	713.720607114	26.5346863027	2019_Mar_08_1553	Sound Switch 12-20-2018	318-laptop	bpl	MW
48	beautiful	1	2	0.2	2	../stimuli/combined/switch-0.2_chunk-500_C_G_alternating_02.mp3	48	3.87	[(None, 0.0), (48, 3.165), (48, 3.87)]	14.7925151535	28.3068488344	728.517761279	41.3318396777	2019_Mar_08_1553	Sound Switch 12-20-2018	318-laptop	bpl	MW
48	beautiful	1	3	0.7	2	../stimuli/combined/switch-0.7_chunk-500_C_G_alternating_02.mp3	51	5.832	[(None, 0.0), (51, 5.173), (51, 5.832)]	16.7542260207	45.0662140789	745.277126918	58.0912053173	2019_Mar_08_1553	Sound Switch 12-20-2018	318-laptop	bpl	MW
48	beautiful	1	4	0.4	7	../stimuli/combined/switch-0.4_chunk-500_C_G_alternating_07.mp3	50	4.608	[(None, 0.0), (50, 3.887), (50, 4.608)]	15.530142513	60.6013168298	760.812229274	73.626307673	2019_Mar_08_1553	Sound Switch 12-20-2018	318-laptop	bpl	MW
48	beautiful	1	5	0.6	19	../stimuli/combined/switch-0.6_chunk-500_C_G_alternating_19.mp3	37	2.15	[(None, 0.0), (37, 1.475), (37, 2.15)]	13.0720431684	73.6773059831	773.888218427	86.7022968264	2019_Mar_08_1553	Sound Switch 12-20-2018	318-laptop	bpl	MW
48	beautiful	1	6	0.3	2	../stimuli/combined/switch-0.3_chunk-500_C_G_alternating_02.mp3	49	3.748	[(None, 0.0), (49, 3.043), (49, 3.748)]	14.6453560296	88.3263029712	788.537215416	101.351294605	2019_Mar_08_1553	Sound Switch 12-20-2018	318-laptop	bpl	MW
48	beautiful	1	7	0.3	12	../stimuli/combined/switch-0.3_chunk-500_C_G_alternating_12.mp3	50	5.794	[(None, 0.0), (50, 5.26), (50, 5.794)]	16.6996179661	105.030889868	805.241802707	118.055881106	2019_Mar_08_1553	Sound Switch 12-20-2018	318-laptop	bpl	MW
48	beautiful	1	8	0.6	7	../stimuli/combined/switch-0.6_chunk-500_C_G_alternating_07.mp3	57	2.563	[(None, 0.0), (57, 1.951), (57, 2.562)]	13.4967962332	118.532891308	818.743803753	131.557883337	2019_Mar_08_1553	Sound Switch 12-20-2018	318-laptop	bpl	MW
48	beautiful	1	9	0.2	18	../stimuli/combined/switch-0.2_chunk-500_C_G_alternating_18.mp3	55	2.875	[(None, 0.0), (55, 2.233), (55, 2.875)]	13.7735462145	132.31042539	832.521338624	145.335417023	2019_Mar_08_1553	Sound Switch 12-20-2018	318-laptop	bpl	MW
48	beautiful	1	10	0.8	2	../stimuli/combined/switch-0.8_chunk-500_C_G_alternating_02.mp3	56	4.227	[(None, 0.0), (56, 2.46), (56, 4.227)]	15.1456916774	147.460817321	847.671729765	160.485808164	2019_Mar_08_1553	Sound Switch 12-20-2018	318-laptop	bpl	MW
48	beautiful	1	11	0.3	5	../stimuli/combined/switch-0.3_chunk-500_C_G_alternating_05.mp3	43	3.651	[(None, 0.0), (43, 3.132), (43, 3.65)]	14.5731275537	162.037795243	862.248707687	175.062786086	2019_Mar_08_1553	Sound Switch 12-20-2018	318-laptop	bpl	MW
48	beautiful	1	12	0.3	14	../stimuli/combined/switch-0.3_chunk-500_C_G_alternating_14.mp3	53	2.839	[(None, 0.0), (53, 2.242), (53, 2.839)]	13.7603506541	175.802855238	876.013767683	188.827846082	2019_Mar_08_1553	Sound Switch 12-20-2018	318-laptop	bpl	MW
48	beautiful	1	13	0.9	19	../stimuli/combined/switch-0.9_chunk-500_C_G_alternating_19.mp3	31	1.93	[(None, 0.0), (31, 1.1), (31, 1.93)]	12.8431464045	188.650728765	888.861641604	201.675720398	2019_Mar_08_1553	Sound Switch 12-20-2018	318-laptop	bpl	MW
48	beautiful	1	14	0.2	3	../stimuli/combined/switch-0.2_chunk-500_C_G_alternating_03.mp3	40	3.117	[(None, 0.0), (40, 2.457), (40, 3.117)]	14.0362878898	202.690971727	902.901884171	215.715963756	2019_Mar_08_1553	Sound Switch 12-20-2018	318-laptop	bpl	MW
48	beautiful	1	15	0.6	5	../stimuli/combined/switch-0.6_chunk-500_C_G_alternating_05.mp3	43	1.713	[(None, 0.0), (43, 0.977), (43, 1.713)]	12.6100839732	215.30480571	915.515718549	228.329796948	2019_Mar_08_1553	Sound Switch 12-20-2018	318-laptop	bpl	MW
48	beautiful	1	16	0.5	3	../stimuli/combined/switch-0.5_chunk-500_C_G_alternating_03.mp3	49	3.195	[(None, 0.0), (49, 2.536), (49, 3.195)]	14.1124184933	229.422205777	929.633118221	242.44719662	2019_Mar_08_1553	Sound Switch 12-20-2018	318-laptop	bpl	MW
48	beautiful	1	17	0.8	9	../stimuli/combined/switch-0.8_chunk-500_C_G_alternating_09.mp3	50	3.033	[(None, 0.0), (50, 2.375), (50, 3.033)]	13.9554728366	243.382658607	943.593571051	256.40765024	2019_Mar_08_1553	Sound Switch 12-20-2018	318-laptop	bpl	MW
48	beautiful	1	18	0.1	18	../stimuli/combined/switch-0.1_chunk-500_C_G_alternating_18.mp3	56	5.848	[(None, 0.0), (56, 5.236), (56, 5.848)]	16.7711794927	260.158748553	960.369661393	273.183739792	2019_Mar_08_1553	Sound Switch 12-20-2018	318-laptop	bpl	MW
48	beautiful	1	19	0.4	19	../stimuli/combined/switch-0.4_chunk-500_C_G_alternating_19.mp3	56	2.831	[(None, 0.0), (56, 2.125), (56, 2.831)]	13.7528782932	273.91634172	974.127254164	286.941332958	2019_Mar_08_1553	Sound Switch 12-20-2018	318-laptop	bpl	MW
48	beautiful	1	20	0.7	1	../stimuli/combined/switch-0.7_chunk-500_C_G_alternating_01.mp3	50	2.46	[(None, 0.0), (50, 1.881), (50, 2.46)]	13.3864307426	287.307459283	987.518372912	300.332451706	2019_Mar_08_1553	Sound Switch 12-20-2018	318-laptop	bpl	MW
48	beautiful	1	21	0.4	12	../stimuli/combined/switch-0.4_chunk-500_C_G_alternating_12.mp3	50	3.574	[(None, 0.0), (50, 3.04), (50, 3.574)]	14.4871989591	301.799359681	1002.01027213	314.82435092	2019_Mar_08_1553	Sound Switch 12-20-2018	318-laptop	bpl	MW
48	beautiful	1	22	0.8	4	../stimuli/combined/switch-0.8_chunk-500_C_G_alternating_04.mp3	48	5.887	[(None, 0.0), (48, 5.259), (48, 5.887)]	16.8064321887	318.610687705	1018.82160015	331.635678548	2019_Mar_08_1553	Sound Switch 12-20-2018	318-laptop	bpl	MW
48	beautiful	1	23	0.7	12	../stimuli/combined/switch-0.7_chunk-500_C_G_alternating_12.mp3	57	2.885	[(None, 0.0), (56, 2.305), (57, 2.33), (57, 2.885)]	13.8088392119	332.423303793	1032.63421663	345.448295032	2019_Mar_08_1553	Sound Switch 12-20-2018	318-laptop	bpl	MW
48	beautiful	1	24	0.5	8	../stimuli/combined/switch-0.5_chunk-500_C_G_alternating_08.mp3	56	2.281	[(None, 0.0), (56, 1.622), (56, 2.281)]	13.2048988375	345.632138738	1045.84305158	358.657130372	2019_Mar_08_1553	Sound Switch 12-20-2018	318-laptop	bpl	MW
48	beautiful	1	25	0.4	5	../stimuli/combined/switch-0.4_chunk-500_C_G_alternating_05.mp3	58	2.45	[(None, 0.0), (58, 1.869), (58, 2.45)]	13.3723125953	359.009206903	1059.22011895	372.034197747	2019_Mar_08_1553	Sound Switch 12-20-2018	318-laptop	bpl	MW
48	beautiful	1	26	0.8	16	../stimuli/combined/switch-0.8_chunk-500_C_G_alternating_16.mp3	60	2.523	[(None, 0.0), (60, 1.896), (60, 2.523)]	13.4467896545	372.460900295	1072.67181353	385.485893113	2019_Mar_08_1553	Sound Switch 12-20-2018	318-laptop	bpl	MW
48	beautiful	1	27	0.3	9	../stimuli/combined/switch-0.3_chunk-500_C_G_alternating_09.mp3	50	2.561	[(None, 0.0), (50, 1.637), (50, 2.561)]	13.4825986684	385.947708093	1086.15862054	398.972699331	2019_Mar_08_1553	Sound Switch 12-20-2018	318-laptop	bpl	MW
48	beautiful	1	28	0.1	19	../stimuli/combined/switch-0.1_chunk-500_C_G_alternating_19.mp3	23	2.001	[(None, 0.0), (23, 1.389), (23, 2.001)]	12.9065887716	398.86002362	1099.07093646	411.885014858	2019_Mar_08_1553	Sound Switch 12-20-2018	318-laptop	bpl	MW
48	beautiful	1	29	0.6	12	../stimuli/combined/switch-0.6_chunk-500_C_G_alternating_12.mp3	56	2.884	[(None, 0.0), (56, 2.069), (56, 2.884)]	13.8031934544	412.667242082	1112.87815453	425.69223332	2019_Mar_08_1553	Sound Switch 12-20-2018	318-laptop	bpl	MW
48	beautiful	1	30	0.3	3	../stimuli/combined/switch-0.3_chunk-500_C_G_alternating_03.mp3	50	3.428	[(None, 0.0), (50, 2.66), (50, 3.428)]	14.3532211715	427.024414375	1127.23532721	440.049406008	2019_Mar_08_1553	Sound Switch 12-20-2018	318-laptop	bpl	MW
48	beautiful	1	31	0.3	19	../stimuli/combined/switch-0.3_chunk-500_C_G_alternating_19.mp3	42	2.043	[(None, 0.0), (42, 1.399), (42, 2.043)]	12.9658224042	439.995166593	1140.20607943	453.020157436	2019_Mar_08_1553	Sound Switch 12-20-2018	318-laptop	bpl	MW
48	beautiful	1	32	0.7	9	../stimuli/combined/switch-0.7_chunk-500_C_G_alternating_09.mp3	50	2.559	[(None, 0.0), (50, 1.839), (50, 2.559)]	13.4729812436	453.472840979	1153.68375342	466.497831822	2019_Mar_08_1553	Sound Switch 12-20-2018	318-laptop	bpl	MW
48	beautiful	1	33	0.9	11	../stimuli/combined/switch-0.9_chunk-500_C_G_alternating_11.mp3	22	1.873	[(None, 0.0), (22, 1.168), (22, 1.873)]	12.7894320935	466.266362483	1166.47727493	479.291353721	2019_Mar_08_1553	Sound Switch 12-20-2018	318-laptop	bpl	MW
48	beautiful	1	34	0.8	14	../stimuli/combined/switch-0.8_chunk-500_C_G_alternating_14.mp3	27	2.918	[(None, 0.0), (27, 2.384), (27, 2.918)]	13.8396227943	480.110690668	1180.3216039	493.135682301	2019_Mar_08_1553	Sound Switch 12-20-2018	318-laptop	bpl	MW
48	beautiful	1	35	0.1	2	../stimuli/combined/switch-0.1_chunk-500_C_G_alternating_02.mp3	31	1.859	[(None, 0.0), (31, 1.167), (31, 1.858)]	12.7815741031	492.897283485	1193.10819593	505.922274329	2019_Mar_08_1553	Sound Switch 12-20-2018	318-laptop	bpl	MW
48	beautiful	1	36	0.7	16	../stimuli/combined/switch-0.7_chunk-500_C_G_alternating_16.mp3	31	2.216	[(None, 0.0), (31, 1.307), (31, 2.216)]	13.14540127	506.046475856	1206.25738791	519.071466305	2019_Mar_08_1553	Sound Switch 12-20-2018	318-laptop	bpl	MW
48	beautiful	1	37	0.4	14	../stimuli/combined/switch-0.4_chunk-500_C_G_alternating_14.mp3	39	4.822	[(None, 0.0), (39, 3.571), (39, 4.822)]	15.7407617841	521.792193137	1222.00310558	534.81718398	2019_Mar_08_1553	Sound Switch 12-20-2018	318-laptop	bpl	MW
48	beautiful	1	38	0.8	0	../stimuli/combined/switch-0.8_chunk-500_C_G_alternating_00.mp3	43	1.886	[(None, 0.0), (43, 1.228), (43, 1.886)]	12.8090715378	534.605942803	1234.81685564	547.630934041	2019_Mar_08_1553	Sound Switch 12-20-2018	318-laptop	bpl	MW
48	beautiful	1	39	0.7	13	../stimuli/combined/switch-0.7_chunk-500_C_G_alternating_13.mp3	31	2.241	[(None, 0.0), (31, 1.488), (31, 2.241)]	13.1376740617	547.747405595	1247.95831883	560.772397228	2019_Mar_08_1553	Sound Switch 12-20-2018	318-laptop	bpl	MW
48	beautiful	1	40	0.5	19	../stimuli/combined/switch-0.5_chunk-500_C_G_alternating_19.mp3	39	4.481	[(None, 0.0), (49, 1.98), (39, 3.888), (39, 4.481)]	15.3865951092	563.138736518	1263.34964896	576.163727362	2019_Mar_08_1553	Sound Switch 12-20-2018	318-laptop	bpl	MW
48	beautiful	1	41	0.9	15	../stimuli/combined/switch-0.9_chunk-500_C_G_alternating_15.mp3	21	1.669	[(None, 0.0), (21, 1.104), (21, 1.669)]	12.5772221008	575.720743822	1275.93165627	588.745734666	2019_Mar_08_1553	Sound Switch 12-20-2018	318-laptop	bpl	MW
48	beautiful	1	42	0.7	11	../stimuli/combined/switch-0.7_chunk-500_C_G_alternating_11.mp3	21	1.651	[(None, 0.0), (21, 1.025), (21, 1.651)]	12.5582847708	588.284244073	1288.49515652	601.309234917	2019_Mar_08_1553	Sound Switch 12-20-2018	318-laptop	bpl	MW
48	beautiful	1	43	0.5	12	../stimuli/combined/switch-0.5_chunk-500_C_G_alternating_12.mp3	34	2.57	[(None, 0.0), (34, 1.931), (34, 2.57)]	13.4865561117	601.775603168	1301.98651561	614.800594012	2019_Mar_08_1553	Sound Switch 12-20-2018	318-laptop	bpl	MW
48	beautiful	1	44	0.3	13	../stimuli/combined/switch-0.3_chunk-500_C_G_alternating_13.mp3	36	1.887	[(None, 0.0), (36, 1.322), (36, 1.887)]	12.8098214607	614.590350097	1314.80126294	627.615341335	2019_Mar_08_1553	Sound Switch 12-20-2018	318-laptop	bpl	MW
48	beautiful	1	45	0.8	18	../stimuli/combined/switch-0.8_chunk-500_C_G_alternating_18.mp3	35	1.731	[(None, 0.0), (35, 1.119), (35, 1.731)]	12.6442319356	627.294906175	1327.50581862	640.319897413	2019_Mar_08_1553	Sound Switch 12-20-2018	318-laptop	bpl	MW
48	beautiful	1	46	0.5	18	../stimuli/combined/switch-0.5_chunk-500_C_G_alternating_18.mp3	40	3.25	[(None, 0.0), (40, 2.716), (40, 3.25)]	14.1722230629	641.471814873	1341.68272811	654.496806506	2019_Mar_08_1553	Sound Switch 12-20-2018	318-laptop	bpl	MW
48	beautiful	1	47	0.7	10	../stimuli/combined/switch-0.7_chunk-500_C_G_alternating_10.mp3	39	2.323	[(None, 0.0), (39, 1.82), (39, 2.323)]	13.3402369962	654.81610888	1355.02702172	667.841100119	2019_Mar_08_1553	Sound Switch 12-20-2018	318-laptop	bpl	MW
48	beautiful	1	48	0.7	6	../stimuli/combined/switch-0.7_chunk-500_C_G_alternating_06.mp3	50	3.334	[(None, 0.0), (50, 2.816), (50, 3.334)]	14.2520677206	669.071905274	1369.28281772	682.096896908	2019_Mar_08_1553	Sound Switch 12-20-2018	318-laptop	bpl	MW
48	beautiful	1	49	0.6	8	../stimuli/combined/switch-0.6_chunk-500_C_G_alternating_08.mp3	55	1.824	[(None, 0.0), (55, 1.118), (55, 1.824)]	12.7398399875	681.816456579	1382.02736902	694.841447817	2019_Mar_08_1553	Sound Switch 12-20-2018	318-laptop	bpl	MW
48	beautiful	1	50	0.3	8	../stimuli/combined/switch-0.3_chunk-500_C_G_alternating_08.mp3	57	3.123	[(None, 0.0), (57, 2.511), (57, 3.123)]	14.0264286564	695.90138554	1396.11229838	708.926376778	2019_Mar_08_1553	Sound Switch 12-20-2018	318-laptop	bpl	MW
48	beautiful	1	51	0.2	11	../stimuli/combined/switch-0.2_chunk-500_C_G_alternating_11.mp3	48	2.356	[(None, 0.0), (48, 1.479), (48, 2.356)]	13.2904801284	709.196559205	1409.40747204	722.221550049	2019_Mar_08_1553	Sound Switch 12-20-2018	318-laptop	bpl	MW
48	beautiful	1	52	0.5	13	../stimuli/combined/switch-0.5_chunk-500_C_G_alternating_13.mp3	47	2.252	[(None, 0.0), (47, 1.594), (47, 2.252)]	13.1642390318	722.365557758	1422.5764702	735.390548601	2019_Mar_08_1553	Sound Switch 12-20-2018	318-laptop	bpl	MW
48	beautiful	1	53	0.9	9	../stimuli/combined/switch-0.9_chunk-500_C_G_alternating_09.mp3	55	3.379	[(None, 0.0), (55, 2.595), (55, 3.379)]	14.2964443463	736.66686712	1436.87777956	749.691858754	2019_Mar_08_1553	Sound Switch 12-20-2018	318-laptop	bpl	MW
48	beautiful	1	54	0.8	5	../stimuli/combined/switch-0.8_chunk-500_C_G_alternating_05.mp3	59	2.48	[(None, 0.0), (59, 1.759), (59, 2.48)]	13.4026963243	750.073426061	1450.2843389	763.098417694	2019_Mar_08_1553	Sound Switch 12-20-2018	318-laptop	bpl	MW
48	beautiful	1	55	0.4	4	../stimuli/combined/switch-0.4_chunk-500_C_G_alternating_04.mp3	56	2.636	[(None, 0.0), (55, 1.384), (56, 1.48), (56, 2.636)]	13.5588849461	763.636983208	1463.84789605	776.661974842	2019_Mar_08_1553	Sound Switch 12-20-2018	318-laptop	bpl	MW
48	beautiful	1	56	0.2	8	../stimuli/combined/switch-0.2_chunk-500_C_G_alternating_08.mp3	58	2.747	[(None, 0.0), (58, 1.822), (58, 2.747)]	13.6667474012	777.308740631	1477.51965347	790.33373187	2019_Mar_08_1553	Sound Switch 12-20-2018	318-laptop	bpl	MW
48	beautiful	1	57	0.6	0	../stimuli/combined/switch-0.6_chunk-500_C_G_alternating_00.mp3	60	2.62	[(None, 0.0), (60, 1.884), (60, 2.62)]	13.533605671	790.846410426	1491.05732287	803.871400874	2019_Mar_08_1553	Sound Switch 12-20-2018	318-laptop	bpl	MW
48	beautiful	1	58	0.8	11	../stimuli/combined/switch-0.8_chunk-500_C_G_alternating_11.mp3	51	3.4	[(None, 0.0), (51, 2.868), (51, 3.4)]	14.3091009737	805.159228615	1505.37014145	818.184219853	2019_Mar_08_1553	Sound Switch 12-20-2018	318-laptop	bpl	MW
48	beautiful	1	59	0.8	8	../stimuli/combined/switch-0.8_chunk-500_C_G_alternating_08.mp3	55	2.731	[(None, 0.0), (55, 2.027), (55, 2.731)]	13.6389816854	818.802032615	1519.01294545	831.827024248	2019_Mar_08_1553	Sound Switch 12-20-2018	318-laptop	bpl	MW
48	beautiful	1	60	0.6	4	../stimuli/combined/switch-0.6_chunk-500_C_G_alternating_04.mp3	56	2.37	[(None, 0.0), (56, 1.633), (56, 2.37)]	13.2785963404	832.08473338	1532.29564582	845.109724224	2019_Mar_08_1553	Sound Switch 12-20-2018	318-laptop	bpl	MW
48	beautiful	1	61	0.9	12	../stimuli/combined/switch-0.9_chunk-500_C_G_alternating_12.mp3	45	2.489	[(None, 0.0), (44, 1.69), (45, 1.739), (45, 2.489)]	13.4074183096	845.497010384	1545.70792283	858.522001227	2019_Mar_08_1553	Sound Switch 12-20-2018	318-laptop	bpl	MW
48	beautiful	1	62	0.3	1	../stimuli/combined/switch-0.3_chunk-500_C_G_alternating_01.mp3	56	1.637	[(None, 0.0), (56, 1.103), (56, 1.637)]	12.550728251	858.052534506	1558.26344695	871.077525349	2019_Mar_08_1553	Sound Switch 12-20-2018	318-laptop	bpl	MW
48	beautiful	1	63	0.5	4	../stimuli/combined/switch-0.5_chunk-500_C_G_alternating_04.mp3	47	3.094	[(None, 0.0), (47, 2.592), (47, 3.094)]	14.006426104	872.063687732	1572.27460057	885.08867897	2019_Mar_08_1553	Sound Switch 12-20-2018	318-laptop	bpl	MW
48	beautiful	1	64	0.7	14	../stimuli/combined/switch-0.7_chunk-500_C_G_alternating_14.mp3	55	2.911	[(None, 0.0), (55, 2.455), (55, 2.911)]	13.8207099612	885.888442061	1586.09935451	898.913433694	2019_Mar_08_1553	Sound Switch 12-20-2018	318-laptop	bpl	MW
48	beautiful	1	65	0.2	16	../stimuli/combined/switch-0.2_chunk-500_C_G_alternating_16.mp3	45	3.074	[(None, 0.0), (45, 2.556), (45, 3.074)]	13.9923909303	899.886189527	1600.09710197	912.91118037	2019_Mar_08_1553	Sound Switch 12-20-2018	318-laptop	bpl	MW
48	beautiful	1	66	0.3	4	../stimuli/combined/switch-0.3_chunk-500_C_G_alternating_04.mp3	49	2.663	[(None, 0.0), (49, 2.146), (49, 2.663)]	13.5867838148	913.477677151	1613.68858999	926.50266839	2019_Mar_08_1553	Sound Switch 12-20-2018	318-laptop	bpl	MW
48	beautiful	1	67	0.9	2	../stimuli/combined/switch-0.9_chunk-500_C_G_alternating_02.mp3	57	4.213	[(None, 0.0), (57, 3.632), (57, 4.213)]	15.1360951936	928.617907589	1628.82881964	941.642898432	2019_Mar_08_1553	Sound Switch 12-20-2018	318-laptop	bpl	MW
48	beautiful	1	68	0.1	9	../stimuli/combined/switch-0.1_chunk-500_C_G_alternating_09.mp3	55	2.591	[(None, 0.0), (55, 1.933), (55, 2.591)]	13.5168015514	942.138649989	1642.34956243	955.163640832	2019_Mar_08_1553	Sound Switch 12-20-2018	318-laptop	bpl	MW
48	beautiful	1	69	0.1	6	../stimuli/combined/switch-0.1_chunk-500_C_G_alternating_06.mp3	39	1.86	[(None, 0.0), (39, 1.31), (39, 1.86)]	12.80811023	954.951736656	1655.1626495	967.97672829	2019_Mar_08_1553	Sound Switch 12-20-2018	318-laptop	bpl	MW
48	beautiful	1	70	0.6	17	../stimuli/combined/switch-0.6_chunk-500_C_G_alternating_17.mp3	53	3.699	[(None, 0.0), (53, 2.932), (53, 3.699)]	14.6155787978	969.589817091	1669.80072993	982.614808329	2019_Mar_08_1553	Sound Switch 12-20-2018	318-laptop	bpl	MW
48	beautiful	1	71	0.1	14	../stimuli/combined/switch-0.1_chunk-500_C_G_alternating_14.mp3	35	1.682	[(None, 0.0), (35, 0.993), (35, 1.682)]	12.6055042283	982.20069603	1682.41160847	995.225687663	2019_Mar_08_1553	Sound Switch 12-20-2018	318-laptop	bpl	MW
48	beautiful	1	72	0.9	7	../stimuli/combined/switch-0.9_chunk-500_C_G_alternating_07.mp3	55	4.06	[(None, 0.0), (55, 3.589), (55, 4.06)]	14.9719628421	997.177421949	1697.38833439	1010.20241319	2019_Mar_08_1553	Sound Switch 12-20-2018	318-laptop	bpl	MW
48	beautiful	1	73	0.5	11	../stimuli/combined/switch-0.5_chunk-500_C_G_alternating_11.mp3	45	2.623	[(None, 0.0), (45, 2.104), (45, 2.623)]	13.5394853348	1010.72213936	1710.9330518	1023.74713099	2019_Mar_08_1553	Sound Switch 12-20-2018	318-laptop	bpl	MW
48	beautiful	1	74	0.8	7	../stimuli/combined/switch-0.8_chunk-500_C_G_alternating_07.mp3	55	6.434	[(None, 0.0), (58, 1.481), (55, 4.967), (55, 6.434)]	17.3314852621	1028.05744773	1728.26836057	1041.08243975	2019_Mar_08_1553	Sound Switch 12-20-2018	318-laptop	bpl	MW
48	beautiful	1	75	0.1	13	../stimuli/combined/switch-0.1_chunk-500_C_G_alternating_13.mp3	30	3.074	[(None, 0.0), (30, 2.119), (30, 3.074)]	13.9825186582	1042.04476621	1742.25567865	1055.06975705	2019_Mar_08_1553	Sound Switch 12-20-2018	318-laptop	bpl	MW
48	beautiful	1	76	0.8	19	../stimuli/combined/switch-0.8_chunk-500_C_G_alternating_19.mp3	30	2.366	[(None, 0.0), (30, 1.739), (30, 2.366)]	13.2837580855	1055.33333399	1755.54424644	1068.35832484	2019_Mar_08_1553	Sound Switch 12-20-2018	318-laptop	bpl	MW
48	beautiful	1	77	0.9	13	../stimuli/combined/switch-0.9_chunk-500_C_G_alternating_13.mp3	30	1.61	[(None, 0.0), (30, 1.107), (30, 1.61)]	12.5311504441	1067.869483	1768.08039544	1080.89447424	2019_Mar_08_1553	Sound Switch 12-20-2018	318-laptop	bpl	MW
48	beautiful	1	78	0.4	15	../stimuli/combined/switch-0.4_chunk-500_C_G_alternating_15.mp3	41	3.843	[(None, 0.0), (41, 3.31), (41, 3.843)]	14.7532445622	1082.62775497	1782.83866741	1095.65274621	2019_Mar_08_1553	Sound Switch 12-20-2018	318-laptop	bpl	MW
48	beautiful	1	79	0.1	15	../stimuli/combined/switch-0.1_chunk-500_C_G_alternating_15.mp3	42	1.999	[(None, 0.0), (42, 1.481), (42, 1.999)]	12.9173456998	1095.54895104	1795.75986348	1108.57394227	2019_Mar_08_1553	Sound Switch 12-20-2018	318-laptop	bpl	MW
48	beautiful	1	80	0.6	9	../stimuli/combined/switch-0.6_chunk-500_C_G_alternating_09.mp3	50	4.788	[(None, 0.0), (50, 4.036), (50, 4.788)]	15.7096036353	1111.26323557	1811.47414801	1124.2882268	2019_Mar_08_1553	Sound Switch 12-20-2018	318-laptop	bpl	MW
48	beautiful	1	81	0.9	10	../stimuli/combined/switch-0.9_chunk-500_C_G_alternating_10.mp3	30	2.681	[(None, 0.0), (30, 2.039), (30, 2.681)]	13.6052849411	1124.87336656	1825.0842794	1137.8983574	2019_Mar_08_1553	Sound Switch 12-20-2018	318-laptop	bpl	MW
48	beautiful	1	82	0.5	10	../stimuli/combined/switch-0.5_chunk-500_C_G_alternating_10.mp3	41	2.593	[(None, 0.0), (41, 1.606), (41, 2.593)]	13.5161701622	1138.3928529	1838.60376573	1151.41784413	2019_Mar_08_1553	Sound Switch 12-20-2018	318-laptop	bpl	MW
48	beautiful	1	83	0.7	5	../stimuli/combined/switch-0.7_chunk-500_C_G_alternating_05.mp3	49	6.193	[(None, 0.0), (41, 1.349), (52, 3.616), (49, 4.959), (49, 6.193)]	17.1032266043	1155.50135938	1855.71227183	1168.52635062	2019_Mar_08_1553	Sound Switch 12-20-2018	318-laptop	bpl	MW
48	beautiful	1	84	0.5	16	../stimuli/combined/switch-0.5_chunk-500_C_G_alternating_16.mp3	39	2.742	[(None, 0.0), (39, 2.209), (39, 2.742)]	13.6501198968	1169.15574175	1869.3666538	1182.1807322	2019_Mar_08_1553	Sound Switch 12-20-2018	318-laptop	bpl	MW
48	beautiful	1	85	0.8	1	../stimuli/combined/switch-0.8_chunk-500_C_G_alternating_01.mp3	50	4.48	[(None, 0.0), (50, 3.962), (50, 4.48)]	15.3888867597	1184.54831135	1884.75922379	1197.57330219	2019_Mar_08_1553	Sound Switch 12-20-2018	318-laptop	bpl	MW
48	beautiful	1	86	0.2	7	../stimuli/combined/switch-0.2_chunk-500_C_G_alternating_07.mp3	55	2.774	[(None, 0.0), (55, 2.117), (55, 2.774)]	13.6901111727	1198.259838	1898.47075084	1211.28482963	2019_Mar_08_1553	Sound Switch 12-20-2018	318-laptop	bpl	MW
48	beautiful	1	87	0.2	9	../stimuli/combined/switch-0.2_chunk-500_C_G_alternating_09.mp3	49	2.856	[(None, 0.0), (49, 2.276), (49, 2.856)]	13.7681758502	1212.03335418	1912.24426663	1225.05834503	2019_Mar_08_1553	Sound Switch 12-20-2018	318-laptop	bpl	MW
48	beautiful	1	88	0.8	10	../stimuli/combined/switch-0.8_chunk-500_C_G_alternating_10.mp3	43	3.119	[(None, 0.0), (43, 2.617), (43, 3.119)]	14.0263369904	1226.06452814	1926.27544058	1239.08951898	2019_Mar_08_1553	Sound Switch 12-20-2018	318-laptop	bpl	MW
48	beautiful	1	89	0.9	1	../stimuli/combined/switch-0.9_chunk-500_C_G_alternating_01.mp3	51	2.259	[(None, 0.0), (51, 1.383), (51, 2.259)]	13.1660731424	1239.23537739	1939.44629023	1252.26036942	2019_Mar_08_1553	Sound Switch 12-20-2018	318-laptop	bpl	MW
48	beautiful	1	90	0.5	1	../stimuli/combined/switch-0.5_chunk-500_C_G_alternating_01.mp3	53	3.759	[(None, 0.0), (53, 3.288), (53, 3.759)]	14.6670322771	1253.9071767	1954.11808914	1266.93216754	2019_Mar_08_1553	Sound Switch 12-20-2018	318-laptop	bpl	MW
48	beautiful	1	91	0.7	18	../stimuli/combined/switch-0.7_chunk-500_C_G_alternating_18.mp3	43	3.089	[(None, 0.0), (43, 2.119), (43, 3.089)]	14.010432146	1267.92243435	1968.13334719	1280.94742677	2019_Mar_08_1553	Sound Switch 12-20-2018	318-laptop	bpl	MW
48	beautiful	1	92	0.4	10	../stimuli/combined/switch-0.4_chunk-500_C_G_alternating_10.mp3	50	3.435	[(None, 0.0), (50, 2.683), (50, 3.435)]	14.3574409693	1282.28458387	1982.49549631	1295.30957471	2019_Mar_08_1553	Sound Switch 12-20-2018	318-laptop	bpl	MW
48	beautiful	1	93	0.3	7	../stimuli/combined/switch-0.3_chunk-500_C_G_alternating_07.mp3	57	3.279	[(None, 0.0), (57, 1.934), (57, 3.279)]	14.201293044	1296.49063209	1996.70154453	1309.51562293	2019_Mar_08_1553	Sound Switch 12-20-2018	318-laptop	bpl	MW
48	beautiful	1	94	0.1	7	../stimuli/combined/switch-0.1_chunk-500_C_G_alternating_07.mp3	50	3.761	[(None, 0.0), (50, 2.885), (50, 3.761)]	14.6589909547	1311.15407082	2011.36498327	1324.17906166	2019_Mar_08_1553	Sound Switch 12-20-2018	318-laptop	bpl	MW
48	beautiful	1	95	0.6	16	../stimuli/combined/switch-0.6_chunk-500_C_G_alternating_16.mp3	49	4.65	[(None, 0.0), (55, 1.412), (49, 3.853), (49, 4.65)]	15.567889947	1326.72513747	2026.93604952	1339.75012792	2019_Mar_08_1553	Sound Switch 12-20-2018	318-laptop	bpl	MW
48	beautiful	1	96	0.9	14	../stimuli/combined/switch-0.9_chunk-500_C_G_alternating_14.mp3	37	2.405	[(None, 0.0), (37, 1.465), (37, 2.405)]	13.3285717052	1340.05766464	2040.26857709	1353.08265549	2019_Mar_08_1553	Sound Switch 12-20-2018	318-laptop	bpl	MW
48	beautiful	1	97	0.9	6	../stimuli/combined/switch-0.9_chunk-500_C_G_alternating_06.mp3	50	4.432	[(None, 0.0), (49, 3.759), (50, 3.839), (50, 4.432)]	15.3568925536	1355.41921675	2055.6301292	1368.44420799	2019_Mar_08_1553	Sound Switch 12-20-2018	318-laptop	bpl	MW
48	beautiful	1	98	0.1	1	../stimuli/combined/switch-0.1_chunk-500_C_G_alternating_01.mp3	41	2.993	[(None, 0.0), (41, 2.506), (41, 2.993)]	13.9058941645	1369.32982184	2069.54073468	1382.35481387	2019_Mar_08_1553	Sound Switch 12-20-2018	318-laptop	bpl	MW
48	beautiful	1	99	0.3	16	../stimuli/combined/switch-0.3_chunk-500_C_G_alternating_16.mp3	51	3.995	[(None, 0.0), (51, 3.462), (51, 3.995)]	14.9033306769	1384.23797723	2084.44888968	1397.26296847	2019_Mar_08_1553	Sound Switch 12-20-2018	318-laptop	bpl	MW
48	beautiful	1	100	0.5	6	../stimuli/combined/switch-0.5_chunk-500_C_G_alternating_06.mp3	57	3.508	[(None, 0.0), (57, 3.052), (57, 3.508)]	14.4259783076	1398.7160491	2098.92696154	1411.74104073	2019_Mar_08_1553	Sound Switch 12-20-2018	318-laptop	bpl	MW
48	beautiful	1	101	0.1	8	../stimuli/combined/switch-0.1_chunk-500_C_G_alternating_08.mp3	42	5.181	[(None, 0.0), (46, 2.477), (42, 4.524), (42, 5.181)]	16.1220201136	1414.84175087	2115.05266331	1427.86674211	2019_Mar_08_1553	Sound Switch 12-20-2018	318-laptop	bpl	MW
48	beautiful	1	102	0.2	17	../stimuli/combined/switch-0.2_chunk-500_C_G_alternating_17.mp3	50	5.41	[(None, 0.0), (50, 4.814), (50, 5.41)]	16.3332154582	1431.2307368	2131.44164925	1444.25572804	2019_Mar_08_1553	Sound Switch 12-20-2018	318-laptop	bpl	MW
48	beautiful	1	103	0.6	15	../stimuli/combined/switch-0.6_chunk-500_C_G_alternating_15.mp3	50	5.151	[(None, 0.0), (50, 4.633), (50, 5.151)]	16.0742696253	1447.30968376	2147.52059621	1460.3346754	2019_Mar_08_1553	Sound Switch 12-20-2018	318-laptop	bpl	MW
48	beautiful	1	104	0.9	8	../stimuli/combined/switch-0.9_chunk-500_C_G_alternating_08.mp3	56	2.715	[(None, 0.0), (56, 2.197), (56, 2.715)]	13.6354264663	1460.96771736	2161.17862981	1473.9927086	2019_Mar_08_1553	Sound Switch 12-20-2018	318-laptop	bpl	MW
48	beautiful	1	105	0.6	13	../stimuli/combined/switch-0.6_chunk-500_C_G_alternating_13.mp3	58	2.835	[(None, 0.0), (58, 2.363), (58, 2.835)]	13.7544295035	1474.72819287	2174.93910532	1487.75318371	2019_Mar_08_1553	Sound Switch 12-20-2018	318-laptop	bpl	MW
48	beautiful	1	106	0.6	6	../stimuli/combined/switch-0.6_chunk-500_C_G_alternating_06.mp3	43	5.26	[(None, 0.0), (43, 4.664), (43, 5.26)]	16.1717339141	1490.9039352	2191.11484804	1503.92892683	2019_Mar_08_1553	Sound Switch 12-20-2018	318-laptop	bpl	MW
48	beautiful	1	107	0.5	9	../stimuli/combined/switch-0.5_chunk-500_C_G_alternating_09.mp3	50	3.335	[(None, 0.0), (50, 2.66), (50, 3.335)]	14.2712195966	1505.1790186	2205.38993104	1518.20400944	2019_Mar_08_1553	Sound Switch 12-20-2018	318-laptop	bpl	MW
48	beautiful	1	108	0.1	0	../stimuli/combined/switch-0.1_chunk-500_C_G_alternating_00.mp3	24	2.608	[(None, 0.0), (24, 2.089), (24, 2.608)]	13.5144838235	1518.69826589	2218.90917834	1531.72325713	2019_Mar_08_1553	Sound Switch 12-20-2018	318-laptop	bpl	MW
48	beautiful	1	109	0.2	0	../stimuli/combined/switch-0.2_chunk-500_C_G_alternating_00.mp3	39	2.593	[(None, 0.0), (39, 2.075), (39, 2.593)]	13.5109258386	1532.21294806	2232.4238609	1545.2379397	2019_Mar_08_1553	Sound Switch 12-20-2018	318-laptop	bpl	MW
48	beautiful	1	110	0.4	2	../stimuli/combined/switch-0.4_chunk-500_C_G_alternating_02.mp3	38	2.873	[(None, 0.0), (38, 2.136), (38, 2.873)]	13.7849783893	1546.0029345	2246.21384694	1559.02792574	2019_Mar_08_1553	Sound Switch 12-20-2018	318-laptop	bpl	MW
48	beautiful	1	111	0.1	4	../stimuli/combined/switch-0.1_chunk-500_C_G_alternating_04.mp3	31	2.305	[(None, 0.0), (31, 1.757), (31, 2.305)]	13.2241143265	1559.2319253	2259.44283814	1572.25691693	2019_Mar_08_1553	Sound Switch 12-20-2018	318-laptop	bpl	MW
48	beautiful	1	112	0.9	18	../stimuli/combined/switch-0.9_chunk-500_C_G_alternating_18.mp3	20	2.884	[(None, 0.0), (20, 2.397), (20, 2.884)]	13.8074665923	1573.04408029	2273.25499313	1586.06907193	2019_Mar_08_1553	Sound Switch 12-20-2018	318-laptop	bpl	MW
48	beautiful	1	113	0.3	15	../stimuli/combined/switch-0.3_chunk-500_C_G_alternating_15.mp3	39	2.368	[(None, 0.0), (39, 1.85), (39, 2.368)]	13.2912209637	1586.34042349	2286.55133593	1599.36541433	2019_Mar_08_1553	Sound Switch 12-20-2018	318-laptop	bpl	MW
48	beautiful	1	114	0.7	4	../stimuli/combined/switch-0.7_chunk-500_C_G_alternating_04.mp3	50	2.979	[(None, 0.0), (50, 2.352), (50, 2.979)]	13.906745236	1600.25217401	2300.46308645	1613.27716524	2019_Mar_08_1553	Sound Switch 12-20-2018	318-laptop	bpl	MW
48	beautiful	1	115	0.2	14	../stimuli/combined/switch-0.2_chunk-500_C_G_alternating_14.mp3	55	3.838	[(None, 0.0), (55, 2.93), (55, 3.838)]	14.7556693654	1615.01256773	2315.22348017	1628.03755936	2019_Mar_08_1553	Sound Switch 12-20-2018	318-laptop	bpl	MW
48	beautiful	1	116	0.4	18	../stimuli/combined/switch-0.4_chunk-500_C_G_alternating_18.mp3	54	3.957	[(None, 0.0), (54, 3.361), (54, 3.957)]	14.8683593008	1629.88483982	2330.09575227	1642.90983067	2019_Mar_08_1553	Sound Switch 12-20-2018	318-laptop	bpl	MW
48	beautiful	1	117	0.3	10	../stimuli/combined/switch-0.3_chunk-500_C_G_alternating_10.mp3	54	2.442	[(None, 0.0), (54, 1.73), (54, 2.442)]	13.368080154	1643.25735077	2343.46826321	1656.282342	2019_Mar_08_1553	Sound Switch 12-20-2018	318-laptop	bpl	MW
48	beautiful	1	118	0.9	5	../stimuli/combined/switch-0.9_chunk-500_C_G_alternating_05.mp3	55	3.26	[(None, 0.0), (55, 2.571), (55, 3.26)]	14.1824714818	1657.44322851	2357.65414056	1670.46821975	2019_Mar_08_1553	Sound Switch 12-20-2018	318-laptop	bpl	MW
48	beautiful	1	119	0.4	13	../stimuli/combined/switch-0.4_chunk-500_C_G_alternating_13.mp3	49	3.225	[(None, 0.0), (49, 2.583), (49, 3.225)]	14.1332895022	1671.58164104	2371.79255348	1684.60663188	2019_Mar_08_1553	Sound Switch 12-20-2018	318-laptop	bpl	MW
48	beautiful	1	120	0.8	6	../stimuli/combined/switch-0.8_chunk-500_C_G_alternating_06.mp3	49	4.684	[(None, 0.0), (49, 4.011), (49, 4.684)]	15.60387202	1687.18940254	2387.40031498	1700.21439338	2019_Mar_08_1553	Sound Switch 12-20-2018	318-laptop	bpl	MW
48	beautiful	1	121	0.1	11	../stimuli/combined/switch-0.1_chunk-500_C_G_alternating_11.mp3	47	3.291	[(None, 0.0), (47, 2.57), (47, 3.291)]	14.2130496059	1701.40715398	2401.61806682	1714.43214522	2019_Mar_08_1553	Sound Switch 12-20-2018	318-laptop	bpl	MW
48	beautiful	1	122	0.4	17	../stimuli/combined/switch-0.4_chunk-500_C_G_alternating_17.mp3	50	3.996	[(None, 0.0), (50, 3.354), (50, 3.996)]	14.9092387888	1716.32116217	2416.53207501	1729.34615341	2019_Mar_08_1553	Sound Switch 12-20-2018	318-laptop	bpl	MW
48	beautiful	1	123	0.4	1	../stimuli/combined/switch-0.4_chunk-500_C_G_alternating_01.mp3	50	3.074	[(None, 0.0), (50, 2.369), (50, 3.074)]	13.980760014	1730.30703375	2430.51794619	1743.33202459	2019_Mar_08_1553	Sound Switch 12-20-2018	318-laptop	bpl	MW
48	beautiful	1	124	0.5	5	../stimuli/combined/switch-0.5_chunk-500_C_G_alternating_05.mp3	43	1.89	[(None, 0.0), (43, 1.293), (43, 1.89)]	12.7963524827	1743.10807858	2443.31899142	1756.13306982	2019_Mar_08_1553	Sound Switch 12-20-2018	318-laptop	bpl	MW
48	beautiful	1	125	0.4	8	../stimuli/combined/switch-0.4_chunk-500_C_G_alternating_08.mp3	39	2.321	[(None, 0.0), (39, 1.616), (39, 2.321)]	13.2288706865	1756.34213907	2456.55305191	1769.3671307	2019_Mar_08_1553	Sound Switch 12-20-2018	318-laptop	bpl	MW
48	beautiful	1	126	0.2	5	../stimuli/combined/switch-0.2_chunk-500_C_G_alternating_05.mp3	55	2.884	[(None, 0.0), (55, 2.304), (55, 2.884)]	13.8016738531	1770.15032753	2470.36123997	1783.17531877	2019_Mar_08_1553	Sound Switch 12-20-2018	318-laptop	bpl	MW
48	beautiful	1	127	0.2	13	../stimuli/combined/switch-0.2_chunk-500_C_G_alternating_13.mp3	24	3.028	[(None, 0.0), (24, 2.292), (24, 3.028)]	13.9413997322	1784.09608693	2484.30699937	1797.12107856	2019_Mar_08_1553	Sound Switch 12-20-2018	318-laptop	bpl	MW
48	beautiful	1	128	0.1	16	../stimuli/combined/switch-0.1_chunk-500_C_G_alternating_16.mp3	31	3.174	[(None, 0.0), (31, 2.485), (31, 3.174)]	14.097331136	1798.22702907	2498.43794151	1811.25202031	2019_Mar_08_1553	Sound Switch 12-20-2018	318-laptop	bpl	MW
48	beautiful	1	129	0.5	15	../stimuli/combined/switch-0.5_chunk-500_C_G_alternating_15.mp3	52	2.171	[(None, 0.0), (52, 1.668), (52, 2.17)]	13.0832963574	1811.31504465	2511.52595669	1824.34003588	2019_Mar_08_1553	Sound Switch 12-20-2018	318-laptop	bpl	MW
48	beautiful	1	130	0.6	14	../stimuli/combined/switch-0.6_chunk-500_C_G_alternating_14.mp3	50	3.513	[(None, 0.0), (50, 3.011), (50, 3.513)]	14.4251912442	1825.79033018	2526.00124263	1838.81532103	2019_Mar_08_1553	Sound Switch 12-20-2018	318-laptop	bpl	MW
48	beautiful	1	131	0.4	11	../stimuli/combined/switch-0.4_chunk-500_C_G_alternating_11.mp3	50	2.451	[(None, 0.0), (50, 1.918), (50, 2.451)]	13.3598827623	1839.15511392	2539.36602636	1852.18010436	2019_Mar_08_1553	Sound Switch 12-20-2018	318-laptop	bpl	MW
48	beautiful	1	132	0.1	10	../stimuli/combined/switch-0.1_chunk-500_C_G_alternating_10.mp3	27	2.98	[(None, 0.0), (27, 2.493), (27, 2.979)]	13.8978319011	1853.05791238	2553.26882522	1866.0829048	2019_Mar_08_1553	Sound Switch 12-20-2018	318-laptop	bpl	MW
48	beautiful	1	133	0.9	4	../stimuli/combined/switch-0.9_chunk-500_C_G_alternating_04.mp3	41	3.488	[(None, 0.0), (41, 2.83), (41, 3.488)]	14.4013312118	1867.4640608	2567.67497324	1880.48905204	2019_Mar_08_1553	Sound Switch 12-20-2018	318-laptop	bpl	MW
48	beautiful	1	134	0.6	3	../stimuli/combined/switch-0.6_chunk-500_C_G_alternating_03.mp3	28	2.792	[(None, 0.0), (28, 2.196), (28, 2.792)]	13.7080634882	1881.17718844	2581.38810167	1894.20218047	2019_Mar_08_1553	Sound Switch 12-20-2018	318-laptop	bpl	MW
48	beautiful	1	135	0.4	3	../stimuli/combined/switch-0.4_chunk-500_C_G_alternating_03.mp3	50	6.11	[(None, 0.0), (50, 5.64), (50, 6.11)]	17.027822612	1898.21048177	2598.42139422	1911.23547262	2019_Mar_08_1553	Sound Switch 12-20-2018	318-laptop	bpl	MW
48	beautiful	1	136	0.7	15	../stimuli/combined/switch-0.7_chunk-500_C_G_alternating_15.mp3	59	3.322	[(None, 0.0), (59, 2.883), (59, 3.322)]	14.2352983709	1912.45075856	2612.661671	1925.47575019	2019_Mar_08_1553	Sound Switch 12-20-2018	318-laptop	bpl	MW
48	beautiful	1	137	0.5	0	../stimuli/combined/switch-0.5_chunk-500_C_G_alternating_00.mp3	38	7.414	[(None, 0.0), (38, 6.849), (38, 7.414)]	18.3157202875	1930.77718875	2630.98810159	1943.80217999	2019_Mar_08_1553	Sound Switch 12-20-2018	318-laptop	bpl	MW
48	beautiful	1	138	0.7	19	../stimuli/combined/switch-0.7_chunk-500_C_G_alternating_19.mp3	41	3.291	[(None, 0.0), (41, 2.648), (41, 3.291)]	14.2108156419	1944.99213569	2645.20304813	1958.01712693	2019_Mar_08_1553	Sound Switch 12-20-2018	318-laptop	bpl	MW
48	beautiful	1	139	0.6	18	../stimuli/combined/switch-0.6_chunk-500_C_G_alternating_18.mp3	43	4.675	[(None, 0.0), (49, 2.58), (43, 3.816), (43, 4.675)]	15.5798594744	1960.62548544	2660.83639789	1973.65047629	2019_Mar_08_1553	Sound Switch 12-20-2018	318-laptop	bpl	MW
48	beautiful	1	140	0.7	3	../stimuli/combined/switch-0.7_chunk-500_C_G_alternating_03.mp3	62	3.556	[(None, 0.0), (62, 3.008), (62, 3.556)]	14.4803548265	1975.10959147	2675.32050391	1988.13458231	2019_Mar_08_1553	Sound Switch 12-20-2018	318-laptop	bpl	MW
48	beautiful	1	141	0.6	11	../stimuli/combined/switch-0.6_chunk-500_C_G_alternating_11.mp3	50	1.871	[(None, 0.0), (50, 1.306), (50, 1.871)]	12.79549746	1987.90978483	2688.12069728	2000.93477607	2019_Mar_08_1553	Sound Switch 12-20-2018	318-laptop	bpl	MW
48	beautiful	1	142	0.5	14	../stimuli/combined/switch-0.5_chunk-500_C_G_alternating_14.mp3	40	3.011	[(None, 0.0), (40, 2.118), (40, 3.011)]	13.9416336386	2001.85632458	2702.06723702	2014.88131542	2019_Mar_08_1553	Sound Switch 12-20-2018	318-laptop	bpl	MW
48	beautiful	1	143	0.4	16	../stimuli/combined/switch-0.4_chunk-500_C_G_alternating_16.mp3	55	8.757	[(None, 0.0), (49, 5.052), (50, 7.35), (51, 7.381), (52, 7.412), (53, 7.505), (54, 7.594), (55, 7.772), (55, 8.757)]	19.6800844118	2021.54111517	2721.75202762	2034.56610641	2019_Mar_08_1553	Sound Switch 12-20-2018	318-laptop	bpl	MW
48	beautiful	1	144	0.2	15	../stimuli/combined/switch-0.2_chunk-500_C_G_alternating_15.mp3	38	1.634	[(None, 0.0), (38, 1.116), (38, 1.634)]	12.5458837809	2034.09196275	2734.30287519	2047.11695438	2019_Mar_08_1553	Sound Switch 12-20-2018	318-laptop	bpl	MW
48	beautiful	1	145	0.2	6	../stimuli/combined/switch-0.2_chunk-500_C_G_alternating_06.mp3	57	9.095	[(None, 0.0), (57, 8.531), (57, 9.095)]	20.0117940976	2054.10864517	2754.31955801	2067.13363681	2019_Mar_08_1553	Sound Switch 12-20-2018	318-laptop	bpl	MW
48	beautiful	1	146	0.7	7	../stimuli/combined/switch-0.7_chunk-500_C_G_alternating_07.mp3	58	2.071	[(None, 0.0), (58, 1.366), (58, 2.071)]	12.9930969957	2067.14064531	2767.35155814	2080.16563654	2019_Mar_08_1553	Sound Switch 12-20-2018	318-laptop	bpl	MW
48	beautiful	1	147	0.1	17	../stimuli/combined/switch-0.1_chunk-500_C_G_alternating_17.mp3	14	3.54	[(None, 0.0), (14, 2.193), (14, 3.54)]	14.4487091094	2081.59428383	2781.80519628	2094.61927468	2019_Mar_08_1553	Sound Switch 12-20-2018	318-laptop	bpl	MW
48	beautiful	1	148	0.8	17	../stimuli/combined/switch-0.8_chunk-500_C_G_alternating_17.mp3	21	2.353	[(None, 0.0), (21, 1.413), (21, 2.353)]	13.2710670833	2094.8692886	2795.08020105	2107.89427984	2019_Mar_08_1553	Sound Switch 12-20-2018	318-laptop	bpl	MW
48	beautiful	1	149	0.1	12	../stimuli/combined/switch-0.1_chunk-500_C_G_alternating_12.mp3	33	4.857	[(None, 0.0), (33, 4.323), (33, 4.857)]	15.7780674828	2110.65230052	2810.86321297	2123.67729215	2019_Mar_08_1553	Sound Switch 12-20-2018	318-laptop	bpl	MW
48	beautiful	1	150	0.1	5	../stimuli/combined/switch-0.1_chunk-500_C_G_alternating_05.mp3	38	3.803	[(None, 0.0), (38, 2.755), (38, 3.803)]	14.7157409123	2125.37199453	2825.58290737	2138.39698577	2019_Mar_08_1553	Sound Switch 12-20-2018	318-laptop	bpl	MW
48	beautiful	1	151	0.2	1	../stimuli/combined/switch-0.2_chunk-500_C_G_alternating_01.mp3	45	6.011	[(None, 0.0), (38, 2.9), (45, 4.261), (45, 6.01)]	16.9183824741	2142.29550437	2842.50641682	2155.32049561	2019_Mar_08_1553	Sound Switch 12-20-2018	318-laptop	bpl	MW
48	beautiful	1	152	0.3	17	../stimuli/combined/switch-0.3_chunk-500_C_G_alternating_17.mp3	50	2.234	[(None, 0.0), (50, 1.607), (50, 2.234)]	13.1412391586	2155.441782	2855.65269445	2168.46677285	2019_Mar_08_1553	Sound Switch 12-20-2018	318-laptop	bpl	MW
48	beautiful	1	153	0.2	4	../stimuli/combined/switch-0.2_chunk-500_C_G_alternating_04.mp3	55	3.585	[(None, 0.0), (55, 2.833), (55, 3.585)]	14.4916581948	2169.93853793	2870.14945038	2182.96352957	2019_Mar_08_1553	Sound Switch 12-20-2018	318-laptop	bpl	MW
48	beautiful	1	154	0.8	3	../stimuli/combined/switch-0.8_chunk-500_C_G_alternating_03.mp3	50	6.542	[(None, 0.0), (50, 5.806), (50, 6.542)]	17.4551747245	2187.39802057	2887.60893341	2200.42301181	2019_Mar_08_1553	Sound Switch 12-20-2018	318-laptop	bpl	MW
48	beautiful	1	155	0.7	8	../stimuli/combined/switch-0.7_chunk-500_C_G_alternating_08.mp3	56	2.382	[(None, 0.0), (56, 1.88), (56, 2.382)]	13.294597197	2200.69731723	2900.90822967	2213.72230807	2019_Mar_08_1553	Sound Switch 12-20-2018	318-laptop	bpl	MW
48	beautiful	1	156	0.7	17	../stimuli/combined/switch-0.7_chunk-500_C_G_alternating_17.mp3	50	4.974	[(None, 0.0), (50, 4.19), (50, 4.974)]	15.8929973089	2216.59398908	2916.80490152	2229.61897992	2019_Mar_08_1553	Sound Switch 12-20-2018	318-laptop	bpl	MW
48	beautiful	1	157	0.3	18	../stimuli/combined/switch-0.3_chunk-500_C_G_alternating_18.mp3	49	4.4	[(None, 0.0), (49, 3.834), (49, 4.4)]	15.3125352885	2231.91034313	2932.12125518	2244.93533476	2019_Mar_08_1553	Sound Switch 12-20-2018	318-laptop	bpl	MW
48	beautiful	1	158	0.9	3	../stimuli/combined/switch-0.9_chunk-500_C_G_alternating_03.mp3	50	2.024	[(None, 0.0), (50, 1.444), (50, 2.024)]	12.9424451989	2244.85775963	2945.06867168	2257.88275008	2019_Mar_08_1553	Sound Switch 12-20-2018	318-laptop	bpl	MW
48	beautiful	1	159	0.8	15	../stimuli/combined/switch-0.8_chunk-500_C_G_alternating_15.mp3	47	4.73	[(None, 0.0), (49, 2.526), (47, 4.184), (47, 4.73)]	15.650874561	2260.51252367	2960.72343612	2273.53751491	2019_Mar_08_1553	Sound Switch 12-20-2018	318-laptop	bpl	MW
48	beautiful	1	160	0.2	12	../stimuli/combined/switch-0.2_chunk-500_C_G_alternating_12.mp3	33	3.105	[(None, 0.0), (32, 1.93), (33, 1.994), (33, 3.105)]	14.0298364986	2274.54624215	2974.75715499	2287.57123339	2019_Mar_08_1553	Sound Switch 12-20-2018	318-laptop	bpl	MW
48	beautiful	1	161	0.8	13	../stimuli/combined/switch-0.8_chunk-500_C_G_alternating_13.mp3	33	2.174	[(None, 0.0), (33, 1.266), (33, 2.174)]	13.0880025382	2287.63812824	2987.84904029	2300.66311869	2019_Mar_08_1553	Sound Switch 12-20-2018	318-laptop	bpl	MW
48	beautiful	1	162	0.8	12	../stimuli/combined/switch-0.8_chunk-500_C_G_alternating_12.mp3	42	3.18	[(None, 0.0), (42, 2.631), (42, 3.18)]	14.0997452712	2301.74277528	3001.95368851	2314.7677677	2019_Mar_08_1553	Sound Switch 12-20-2018	318-laptop	bpl	MW
48	beautiful	1	163	0.5	7	../stimuli/combined/switch-0.5_chunk-500_C_G_alternating_07.mp3	53	3.799	[(None, 0.0), (53, 3.172), (53, 3.799)]	14.723596532	2316.47039919	3016.68131163	2329.49539003	2019_Mar_08_1553	Sound Switch 12-20-2018	318-laptop	bpl	MW
48	beautiful	1	164	0.6	10	../stimuli/combined/switch-0.6_chunk-500_C_G_alternating_10.mp3	48	5.161	[(None, 0.0), (50, 2.722), (48, 4.349), (48, 5.161)]	16.0746556499	2332.54897948	3032.75989232	2345.57397072	2019_Mar_08_1553	Sound Switch 12-20-2018	318-laptop	bpl	MW
48	beautiful	1	165	0.9	0	../stimuli/combined/switch-0.9_chunk-500_C_G_alternating_00.mp3	37	2.463	[(None, 0.0), (37, 1.944), (37, 2.463)]	13.3801808586	2345.93309961	3046.14401166	2358.95809045	2019_Mar_08_1553	Sound Switch 12-20-2018	318-laptop	bpl	MW
48	beautiful	1	166	0.5	2	../stimuli/combined/switch-0.5_chunk-500_C_G_alternating_02.mp3	44	2.684	[(None, 0.0), (44, 1.993), (44, 2.684)]	13.5936354545	2359.53106787	3059.74198031	2372.55605871	2019_Mar_08_1553	Sound Switch 12-20-2018	318-laptop	bpl	MW
48	beautiful	1	167	0.5	17	../stimuli/combined/switch-0.5_chunk-500_C_G_alternating_17.mp3	53	2.569	[(None, 0.0), (53, 1.864), (53, 2.569)]	13.4843253085	2373.02062209	3073.23153453	2386.04561333	2019_Mar_08_1553	Sound Switch 12-20-2018	318-laptop	bpl	MW
48	beautiful	1	168	0.9	16	../stimuli/combined/switch-0.9_chunk-500_C_G_alternating_16.mp3	27	1.553	[(None, 0.0), (27, 1.02), (27, 1.553)]	12.4557567247	2385.48997778	3085.70088983	2398.51496863	2019_Mar_08_1553	Sound Switch 12-20-2018	318-laptop	bpl	MW
48	beautiful	1	169	0.3	6	../stimuli/combined/switch-0.3_chunk-500_C_G_alternating_06.mp3	50	3.285	[(None, 0.0), (50, 2.735), (50, 3.285)]	14.1973442932	2399.69253677	3099.90344882	2412.71752721	2019_Mar_08_1553	Sound Switch 12-20-2018	318-laptop	bpl	MW
48	beautiful	1	170	0.6	2	../stimuli/combined/switch-0.6_chunk-500_C_G_alternating_02.mp3	50	2.276	[(None, 0.0), (50, 1.664), (50, 2.276)]	13.1940040151	2412.89132796	3113.10224159	2425.91631999	2019_Mar_08_1553	Sound Switch 12-20-2018	318-laptop	bpl	MW
48	beautiful	1	171	0.9	17	../stimuli/combined/switch-0.9_chunk-500_C_G_alternating_17.mp3	21	2.87	[(None, 0.0), (21, 1.697), (21, 2.87)]	13.7841257373	2426.72705692	3126.93796937	2439.75204856	2019_Mar_08_1553	Sound Switch 12-20-2018	318-laptop	bpl	MW
48	beautiful	1	172	0.4	6	../stimuli/combined/switch-0.4_chunk-500_C_G_alternating_06.mp3	56	3.74	[(None, 0.0), (56, 3.207), (56, 3.74)]	14.6474916108	2441.37850321	3141.58941566	2454.40349406	2019_Mar_08_1553	Sound Switch 12-20-2018	318-laptop	bpl	MW
48	beautiful	1	173	0.6	1	../stimuli/combined/switch-0.6_chunk-500_C_G_alternating_01.mp3	55	2.821	[(None, 0.0), (55, 2.382), (55, 2.821)]	13.7420869903	2455.12543665	3155.33634949	2468.15042789	2019_Mar_08_1553	Sound Switch 12-20-2018	318-laptop	bpl	MW
48	beautiful	1	174	0.2	19	../stimuli/combined/switch-0.2_chunk-500_C_G_alternating_19.mp3	50	2.647	[(None, 0.0), (50, 1.677), (50, 2.647)]	13.5722816186	2468.7024201	3168.91333215	2481.72741094	2019_Mar_08_1553	Sound Switch 12-20-2018	318-laptop	bpl	MW
48	beautiful	1	175	0.7	0	../stimuli/combined/switch-0.7_chunk-500_C_G_alternating_00.mp3	49	1.918	[(None, 0.0), (49, 1.26), (49, 1.918)]	12.8248657508	2481.53094499	3181.74185743	2494.55593662	2019_Mar_08_1553	Sound Switch 12-20-2018	318-laptop	bpl	MW
48	beautiful	1	176	0.4	9	../stimuli/combined/switch-0.4_chunk-500_C_G_alternating_09.mp3	39	2.588	[(None, 0.0), (39, 1.509), (39, 2.588)]	13.5005742955	2495.03621321	3195.24712526	2508.06120366	2019_Mar_08_1553	Sound Switch 12-20-2018	318-laptop	bpl	MW
48	beautiful	1	177	0.4	0	../stimuli/combined/switch-0.4_chunk-500_C_G_alternating_00.mp3	49	4.635	[(None, 0.0), (49, 3.866), (49, 4.634)]	15.5522111068	2510.59344817	3210.80436101	2523.61843941	2019_Mar_08_1553	Sound Switch 12-20-2018	318-laptop	bpl	MW
48	beautiful	1	178	0.1	3	../stimuli/combined/switch-0.1_chunk-500_C_G_alternating_03.mp3	33	1.84	[(None, 0.0), (33, 1.306), (33, 1.839)]	12.7632523577	2523.36043829	3223.57135113	2536.38542953	2019_Mar_08_1553	Sound Switch 12-20-2018	318-laptop	bpl	MW
48	beautiful	1	179	0.3	11	../stimuli/combined/switch-0.3_chunk-500_C_G_alternating_11.mp3	37	4.913	[(None, 0.0), (31, 3.005), (37, 4.367), (37, 4.913)]	15.8370059666	2539.20247957	3239.41339162	2552.22747001	2019_Mar_08_1553	Sound Switch 12-20-2018	318-laptop	bpl	MW
48	beautiful	1	180	0.3	0	../stimuli/combined/switch-0.3_chunk-500_C_G_alternating_00.mp3	45	2.902	[(None, 0.0), (45, 2.352), (45, 2.902)]	13.8146110101	2553.02182679	3253.23273923	2566.04681842	2019_Mar_08_1553	Sound Switch 12-20-2018	318-laptop	bpl	MW
48	beautiful	2	181	0.7	15	../stimuli/combined/switch-0.7_chunk-500_C_G_alternating_15.mp3	50	3.508	[(None, 0.0), (50, 2.694), (50, 3.508)]	14.4406053592	14.4410328706	3277.563488	2590.3775664	2019_Mar_08_1553	Sound Switch 12-20-2018	318-laptop	bpl	MW
48	beautiful	2	182	0.3	14	../stimuli/combined/switch-0.3_chunk-500_C_G_alternating_14.mp3	55	2.7	[(None, 0.0), (55, 2.009), (55, 2.7)]	13.6221321279	28.067866833	3291.19032197	2604.00440036	2019_Mar_08_1553	Sound Switch 12-20-2018	318-laptop	bpl	MW
48	beautiful	2	183	0.9	4	../stimuli/combined/switch-0.9_chunk-500_C_G_alternating_04.mp3	60	5.323	[(None, 0.0), (54, 1.371), (60, 4.761), (60, 5.323)]	16.2393593336	44.3119789706	3307.4344341	2620.2485129	2019_Mar_08_1553	Sound Switch 12-20-2018	318-laptop	bpl	MW
48	beautiful	2	184	0.2	11	../stimuli/combined/switch-0.2_chunk-500_C_G_alternating_11.mp3	54	3.527	[(None, 0.0), (54, 2.883), (54, 3.527)]	14.436013761	58.753092444	3321.87554718	2634.68962558	2019_Mar_08_1553	Sound Switch 12-20-2018	318-laptop	bpl	MW
48	beautiful	2	185	0.5	1	../stimuli/combined/switch-0.5_chunk-500_C_G_alternating_01.mp3	50	2.271	[(None, 0.0), (50, 1.675), (50, 2.271)]	13.177497415	71.9356184513	3335.05807398	2647.87215238	2019_Mar_08_1553	Sound Switch 12-20-2018	318-laptop	bpl	MW
48	beautiful	2	186	0.6	3	../stimuli/combined/switch-0.6_chunk-500_C_G_alternating_03.mp3	56	2.947	[(None, 0.0), (56, 2.397), (56, 2.947)]	13.8893895399	85.8290045505	3348.95145968	2661.76553808	2019_Mar_08_1553	Sound Switch 12-20-2018	318-laptop	bpl	MW
48	beautiful	2	187	0.3	16	../stimuli/combined/switch-0.3_chunk-500_C_G_alternating_16.mp3	49	3.617	[(None, 0.0), (49, 2.943), (49, 3.617)]	14.5498740185	100.382611589	3363.50506672	2676.31914512	2019_Mar_08_1553	Sound Switch 12-20-2018	318-laptop	bpl	MW
48	beautiful	2	188	0.4	2	../stimuli/combined/switch-0.4_chunk-500_C_G_alternating_02.mp3	57	1.542	[(None, 0.0), (57, 1.055), (57, 1.542)]	12.46541129	112.853345829	3375.97580136	2688.78988055	2019_Mar_08_1553	Sound Switch 12-20-2018	318-laptop	bpl	MW
48	beautiful	2	189	0.6	10	../stimuli/combined/switch-0.6_chunk-500_C_G_alternating_10.mp3	53	5.411	[(None, 0.0), (53, 4.863), (53, 5.411)]	16.3247588729	129.182055429	3392.30451056	2705.11858935	2019_Mar_08_1553	Sound Switch 12-20-2018	318-laptop	bpl	MW
48	beautiful	2	190	0.4	18	../stimuli/combined/switch-0.4_chunk-500_C_G_alternating_18.mp3	57	2.688	[(None, 0.0), (57, 1.811), (57, 2.688)]	13.5960653942	142.782947908	3405.90540344	2718.71948183	2019_Mar_08_1553	Sound Switch 12-20-2018	318-laptop	bpl	MW
48	beautiful	2	191	0.5	8	../stimuli/combined/switch-0.5_chunk-500_C_G_alternating_08.mp3	60	3.089	[(None, 0.0), (60, 2.29), (60, 3.089)]	14.0079654609	156.795751122	3419.91820625	2732.73228465	2019_Mar_08_1553	Sound Switch 12-20-2018	318-laptop	bpl	MW
48	beautiful	2	192	0.1	7	../stimuli/combined/switch-0.1_chunk-500_C_G_alternating_07.mp3	44	5.679	[(None, 0.0), (38, 2.072), (44, 5.039), (44, 5.679)]	16.5907380971	173.39140797	3436.5138635	2749.3279415	2019_Mar_08_1553	Sound Switch 12-20-2018	318-laptop	bpl	MW
48	beautiful	2	193	0.8	0	../stimuli/combined/switch-0.8_chunk-500_C_G_alternating_00.mp3	50	4.026	[(None, 0.0), (50, 3.477), (50, 4.026)]	14.9440679245	188.34055111	3451.46300624	2764.27708622	2019_Mar_08_1553	Sound Switch 12-20-2018	318-laptop	bpl	MW
48	beautiful	2	194	0.8	18	../stimuli/combined/switch-0.8_chunk-500_C_G_alternating_18.mp3	53	3.693	[(None, 0.0), (53, 2.956), (53, 3.693)]	14.6060712142	202.951354188	3466.07381011	2778.88788851	2019_Mar_08_1553	Sound Switch 12-20-2018	318-laptop	bpl	MW
48	beautiful	2	195	0.7	2	../stimuli/combined/switch-0.7_chunk-500_C_G_alternating_02.mp3	31	2.678	[(None, 0.0), (31, 2.144), (31, 2.678)]	13.5962096102	216.552621628	3479.67507676	2792.48915634	2019_Mar_08_1553	Sound Switch 12-20-2018	318-laptop	bpl	MW
48	beautiful	2	196	0.1	2	../stimuli/combined/switch-0.1_chunk-500_C_G_alternating_02.mp3	27	4.155	[(None, 0.0), (27, 2.311), (27, 4.155)]	15.0643594225	231.621717655	3494.74417318	2807.55825158	2019_Mar_08_1553	Sound Switch 12-20-2018	318-laptop	bpl	MW
48	beautiful	2	197	0.4	3	../stimuli/combined/switch-0.4_chunk-500_C_G_alternating_03.mp3	50	2.964	[(None, 0.0), (50, 2.461), (50, 2.963)]	13.8727979906	245.498296474	3508.62075161	2821.4348308	2019_Mar_08_1553	Sound Switch 12-20-2018	318-laptop	bpl	MW
48	beautiful	2	198	0.6	19	../stimuli/combined/switch-0.6_chunk-500_C_G_alternating_19.mp3	50	4.144	[(None, 0.0), (50, 3.315), (50, 4.144)]	15.0675574602	260.58674865	3523.70920378	2836.52328258	2019_Mar_08_1553	Sound Switch 12-20-2018	318-laptop	bpl	MW
48	beautiful	2	199	0.9	19	../stimuli/combined/switch-0.9_chunk-500_C_G_alternating_19.mp3	19	2.075	[(None, 0.0), (19, 1.51), (19, 2.075)]	12.9989197634	273.58895298	3536.7114093	2849.5254877	2019_Mar_08_1553	Sound Switch 12-20-2018	318-laptop	bpl	MW
48	beautiful	2	200	0.2	0	../stimuli/combined/switch-0.2_chunk-500_C_G_alternating_00.mp3	55	4.406	[(None, 0.0), (55, 3.347), (55, 4.406)]	15.3118794023	288.904717125	3552.02717265	2864.84125184	2019_Mar_08_1553	Sound Switch 12-20-2018	318-laptop	bpl	MW
