Subject ID	Condition	Block #	Trial #	Switch Rate	Exemplar	File Name	Rating	RT	Rating History	Trial Duration	Block Duration	Session Duration	Experiment Duration	Start Date	Experiment	Testing Location	Experimenter Initials	Subject Initials
22	beautiful	1	1	0.1	19	../stimuli/combined/switch-0.1_chunk-500_C_G_alternating_19.mp3	53	5.022	[(None, 0.0), (53, 4.332), (53, 5.022)]	15.9017257177	15.9021844393	1294.88489486	34.3899828799	2019_Feb_21_1629	Sound Switch 12-20-2018	318-laptop	bpl	RC
22	beautiful	1	2	0.8	8	../stimuli/combined/switch-0.8_chunk-500_C_G_alternating_08.mp3	58	5.339	[(None, 0.0), (58, 4.709), (58, 5.339)]	16.2505773531	32.1575931855	1311.140304	50.6453916261	2019_Feb_21_1629	Sound Switch 12-20-2018	318-laptop	bpl	RC
22	beautiful	1	3	0.5	16	../stimuli/combined/switch-0.5_chunk-500_C_G_alternating_16.mp3	55	7.758	[(None, 0.0), (55, 7.269), (55, 7.758)]	18.6787246039	50.8407600001	1329.82347161	69.328559231	2019_Feb_21_1629	Sound Switch 12-20-2018	318-laptop	bpl	RC
22	beautiful	1	4	0.6	11	../stimuli/combined/switch-0.6_chunk-500_C_G_alternating_11.mp3	49	3.17	[(None, 0.0), (49, 2.371), (49, 3.17)]	14.0921516729	64.9385751657	1343.92128559	83.4263736064	2019_Feb_21_1629	Sound Switch 12-20-2018	318-laptop	bpl	RC
22	beautiful	1	5	0.1	13	../stimuli/combined/switch-0.1_chunk-500_C_G_alternating_13.mp3	22	3.583	[(None, 0.0), (22, 2.831), (22, 3.583)]	14.4954224644	79.4393130318	1358.42202385	97.9271114725	2019_Feb_21_1629	Sound Switch 12-20-2018	318-laptop	bpl	RC
22	beautiful	1	6	0.5	8	../stimuli/combined/switch-0.5_chunk-500_C_G_alternating_08.mp3	57	3.52	[(None, 0.0), (57, 2.75), (57, 3.52)]	14.4414296309	93.8850876767	1372.86779889	112.372886908	2019_Feb_21_1629	Sound Switch 12-20-2018	318-laptop	bpl	RC
22	beautiful	1	7	0.8	3	../stimuli/combined/switch-0.8_chunk-500_C_G_alternating_03.mp3	55	3.013	[(None, 0.0), (55, 2.462), (55, 3.012)]	13.9345493999	107.823937838	1386.80664905	126.311736674	2019_Feb_21_1629	Sound Switch 12-20-2018	318-laptop	bpl	RC
22	beautiful	1	8	0.1	6	../stimuli/combined/switch-0.1_chunk-500_C_G_alternating_06.mp3	44	3.887	[(None, 0.0), (44, 3.01), (44, 3.886)]	14.8028078028	122.636206132	1401.61891735	141.124005362	2019_Feb_21_1629	Sound Switch 12-20-2018	318-laptop	bpl	RC
22	beautiful	1	9	0.9	11	../stimuli/combined/switch-0.9_chunk-500_C_G_alternating_11.mp3	41	10.323	[(None, 0.0), (41, 9.726), (41, 10.323)]	21.234471919	143.876180339	1422.85889116	162.363979175	2019_Feb_21_1629	Sound Switch 12-20-2018	318-laptop	bpl	RC
22	beautiful	1	10	0.6	10	../stimuli/combined/switch-0.6_chunk-500_C_G_alternating_10.mp3	41	2.842	[(None, 0.0), (41, 2.309), (41, 2.842)]	13.7488374905	157.62936798	1436.6120788	176.11716642	2019_Feb_21_1629	Sound Switch 12-20-2018	318-laptop	bpl	RC
22	beautiful	1	11	0.8	13	../stimuli/combined/switch-0.8_chunk-500_C_G_alternating_13.mp3	18	3.182	[(None, 0.0), (18, 2.304), (18, 3.182)]	14.1022332747	171.736020154	1450.71873097	190.223819385	2019_Feb_21_1629	Sound Switch 12-20-2018	318-laptop	bpl	RC
22	beautiful	1	12	0.9	13	../stimuli/combined/switch-0.9_chunk-500_C_G_alternating_13.mp3	19	7.602	[(None, 0.0), (19, 5.522), (19, 7.602)]	18.5233819594	190.265280545	1469.24799215	208.753080171	2019_Feb_21_1629	Sound Switch 12-20-2018	318-laptop	bpl	RC
22	beautiful	1	13	0.2	10	../stimuli/combined/switch-0.2_chunk-500_C_G_alternating_10.mp3	19	6.568	[(None, 0.0), (19, 5.878), (19, 6.568)]	17.4812522743	207.750948953	1486.73365977	226.238748579	2019_Feb_21_1629	Sound Switch 12-20-2018	318-laptop	bpl	RC
22	beautiful	1	14	0.5	18	../stimuli/combined/switch-0.5_chunk-500_C_G_alternating_18.mp3	17	4.385	[(None, 0.0), (17, 3.102), (17, 4.385)]	15.2925201515	223.048880123	1502.03159094	241.536678563	2019_Feb_21_1629	Sound Switch 12-20-2018	318-laptop	bpl	RC
22	beautiful	1	15	0.9	2	../stimuli/combined/switch-0.9_chunk-500_C_G_alternating_02.mp3	30	3.379	[(None, 0.0), (30, 2.846), (30, 3.379)]	14.3137932165	237.368326954	1516.35103777	255.856125395	2019_Feb_21_1629	Sound Switch 12-20-2018	318-laptop	bpl	RC
22	beautiful	1	16	0.3	1	../stimuli/combined/switch-0.3_chunk-500_C_G_alternating_01.mp3	36	3.401	[(None, 0.0), (36, 2.802), (36, 3.401)]	14.3278176114	251.70107197	1530.68378279	270.188870411	2019_Feb_21_1629	Sound Switch 12-20-2018	318-laptop	bpl	RC
22	beautiful	1	17	0.7	5	../stimuli/combined/switch-0.7_chunk-500_C_G_alternating_05.mp3	36	3.354	[(None, 0.0), (36, 2.134), (36, 3.354)]	14.2656440455	265.973351477	1544.9560623	284.461149917	2019_Feb_21_1629	Sound Switch 12-20-2018	318-laptop	bpl	RC
22	beautiful	1	18	0.5	14	../stimuli/combined/switch-0.5_chunk-500_C_G_alternating_14.mp3	20	7.291	[(None, 0.0), (20, 5.415), (20, 7.291)]	18.2090024011	284.18669178	1563.1694026	302.674490616	2019_Feb_21_1629	Sound Switch 12-20-2018	318-laptop	bpl	RC
22	beautiful	1	19	0.2	14	../stimuli/combined/switch-0.2_chunk-500_C_G_alternating_14.mp3	20	3.591	[(None, 0.0), (20, 2.666), (20, 3.591)]	14.5144252329	298.70561849	1577.68832931	317.193418511	2019_Feb_21_1629	Sound Switch 12-20-2018	318-laptop	bpl	RC
22	beautiful	1	20	0.5	6	../stimuli/combined/switch-0.5_chunk-500_C_G_alternating_06.mp3	52	4.188	[(None, 0.0), (52, 3.184), (52, 4.188)]	15.1113946677	313.822618964	1592.80532978	332.310417405	2019_Feb_21_1629	Sound Switch 12-20-2018	318-laptop	bpl	RC
22	beautiful	1	21	0.5	17	../stimuli/combined/switch-0.5_chunk-500_C_G_alternating_17.mp3	39	3.624	[(None, 0.0), (39, 2.951), (39, 3.624)]	14.543385144	328.371729633	1607.35444045	346.859528469	2019_Feb_21_1629	Sound Switch 12-20-2018	318-laptop	bpl	RC
22	beautiful	1	22	0.7	9	../stimuli/combined/switch-0.7_chunk-500_C_G_alternating_09.mp3	43	3.094	[(None, 0.0), (43, 2.467), (43, 3.094)]	14.0153294399	342.392603243	1621.37531406	360.880402869	2019_Feb_21_1629	Sound Switch 12-20-2018	318-laptop	bpl	RC
22	beautiful	1	23	0.5	7	../stimuli/combined/switch-0.5_chunk-500_C_G_alternating_07.mp3	45	3.178	[(None, 0.0), (45, 2.536), (45, 3.178)]	14.1011890016	356.49908315	1635.48179436	374.98688238	2019_Feb_21_1629	Sound Switch 12-20-2018	318-laptop	bpl	RC
22	beautiful	1	24	0.4	13	../stimuli/combined/switch-0.4_chunk-500_C_G_alternating_13.mp3	57	7.711	[(None, 0.0), (57, 6.972), (57, 7.711)]	18.6346861471	375.138070849	1654.12078127	393.625868894	2019_Feb_21_1629	Sound Switch 12-20-2018	318-laptop	bpl	RC
22	beautiful	1	25	0.1	10	../stimuli/combined/switch-0.1_chunk-500_C_G_alternating_10.mp3	56	3.436	[(None, 0.0), (56, 2.59), (56, 3.436)]	14.3485363384	389.491949851	1668.47466028	407.979748292	2019_Feb_21_1629	Sound Switch 12-20-2018	318-laptop	bpl	RC
22	beautiful	1	26	0.3	2	../stimuli/combined/switch-0.3_chunk-500_C_G_alternating_02.mp3	60	2.8	[(None, 0.0), (60, 2.234), (60, 2.8)]	13.71745161	403.214947607	1682.19765843	421.702746442	2019_Feb_21_1629	Sound Switch 12-20-2018	318-laptop	bpl	RC
22	beautiful	1	27	0.1	7	../stimuli/combined/switch-0.1_chunk-500_C_G_alternating_07.mp3	62	2.522	[(None, 0.0), (62, 2.035), (62, 2.522)]	13.4456162061	416.666183843	1695.64889466	435.153982679	2019_Feb_21_1629	Sound Switch 12-20-2018	318-laptop	bpl	RC
22	beautiful	1	28	0.4	15	../stimuli/combined/switch-0.4_chunk-500_C_G_alternating_15.mp3	52	4.073	[(None, 0.0), (52, 3.538), (52, 4.073)]	14.9804748973	431.652631999	1710.63534282	450.14043044	2019_Feb_21_1629	Sound Switch 12-20-2018	318-laptop	bpl	RC
22	beautiful	1	29	0.3	4	../stimuli/combined/switch-0.3_chunk-500_C_G_alternating_04.mp3	61	2.312	[(None, 0.0), (59, 1.201), (61, 1.687), (61, 2.312)]	13.2230682823	444.881592147	1723.86430297	463.369390588	2019_Feb_21_1629	Sound Switch 12-20-2018	318-laptop	bpl	RC
22	beautiful	1	30	0.6	13	../stimuli/combined/switch-0.6_chunk-500_C_G_alternating_13.mp3	54	2.649	[(None, 0.0), (54, 2.007), (54, 2.649)]	13.5662358793	458.453152516	1737.43586333	476.940951351	2019_Feb_21_1629	Sound Switch 12-20-2018	318-laptop	bpl	RC
22	beautiful	1	31	0.7	12	../stimuli/combined/switch-0.7_chunk-500_C_G_alternating_12.mp3	58	2.527	[(None, 0.0), (58, 1.867), (58, 2.527)]	13.4478458063	471.906316885	1750.8890277	490.394116115	2019_Feb_21_1629	Sound Switch 12-20-2018	318-laptop	bpl	RC
22	beautiful	1	32	0.8	0	../stimuli/combined/switch-0.8_chunk-500_C_G_alternating_00.mp3	64	2.768	[(None, 0.0), (65, 1.421), (64, 2.206), (64, 2.768)]	13.6915403602	485.601639228	1764.58435044	504.089439249	2019_Feb_21_1629	Sound Switch 12-20-2018	318-laptop	bpl	RC
22	beautiful	1	33	0.7	11	../stimuli/combined/switch-0.7_chunk-500_C_G_alternating_11.mp3	54	4.204	[(None, 0.0), (56, 2.871), (54, 3.579), (54, 4.204)]	15.1142133755	500.721460781	1779.7041716	519.209259222	2019_Feb_21_1629	Sound Switch 12-20-2018	318-laptop	bpl	RC
22	beautiful	1	34	0.7	18	../stimuli/combined/switch-0.7_chunk-500_C_G_alternating_18.mp3	57	3.151	[(None, 0.0), (57, 1.196), (57, 3.151)]	14.0666513364	514.793876363	1793.77658758	533.281675199	2019_Feb_21_1629	Sound Switch 12-20-2018	318-laptop	bpl	RC
22	beautiful	1	35	0.8	11	../stimuli/combined/switch-0.8_chunk-500_C_G_alternating_11.mp3	63	2.966	[(None, 0.0), (61, 1.787), (63, 2.29), (63, 2.966)]	13.8886246927	528.687722027	1807.67043245	547.175520467	2019_Feb_21_1629	Sound Switch 12-20-2018	318-laptop	bpl	RC
22	beautiful	1	36	0.2	4	../stimuli/combined/switch-0.2_chunk-500_C_G_alternating_04.mp3	60	3.911	[(None, 0.0), (60, 3.315), (60, 3.911)]	14.8337740774	543.526897244	1822.50960767	562.014695685	2019_Feb_21_1629	Sound Switch 12-20-2018	318-laptop	bpl	RC
22	beautiful	1	37	0.2	8	../stimuli/combined/switch-0.2_chunk-500_C_G_alternating_08.mp3	63	2.306	[(None, 0.0), (63, 1.787), (63, 2.306)]	13.2304552407	556.762639834	1835.74535026	575.25043867	2019_Feb_21_1629	Sound Switch 12-20-2018	318-laptop	bpl	RC
22	beautiful	1	38	0.8	19	../stimuli/combined/switch-0.8_chunk-500_C_G_alternating_19.mp3	57	2.593	[(None, 0.0), (57, 1.887), (57, 2.593)]	13.5039473367	570.271949195	1849.25466041	588.759748031	2019_Feb_21_1629	Sound Switch 12-20-2018	318-laptop	bpl	RC
22	beautiful	1	39	0.2	5	../stimuli/combined/switch-0.2_chunk-500_C_G_alternating_05.mp3	59	2.683	[(None, 0.0), (59, 2.18), (59, 2.683)]	13.60010502	583.877958329	1862.86066915	602.365758351	2019_Feb_21_1629	Sound Switch 12-20-2018	318-laptop	bpl	RC
22	beautiful	1	40	0.2	11	../stimuli/combined/switch-0.2_chunk-500_C_G_alternating_11.mp3	46	3.272	[(None, 0.0), (46, 2.8), (46, 3.272)]	14.1965023369	598.078989406	1877.06170062	616.566788637	2019_Feb_21_1629	Sound Switch 12-20-2018	318-laptop	bpl	RC
22	beautiful	1	41	0.7	15	../stimuli/combined/switch-0.7_chunk-500_C_G_alternating_15.mp3	51	3.001	[(None, 0.0), (51, 2.495), (51, 3.001)]	13.9297598883	612.013248006	1890.99595882	630.501046446	2019_Feb_21_1629	Sound Switch 12-20-2018	318-laptop	bpl	RC
22	beautiful	1	42	0.4	11	../stimuli/combined/switch-0.4_chunk-500_C_G_alternating_11.mp3	49	3.324	[(None, 0.0), (49, 2.726), (49, 3.324)]	14.2457558376	626.263553919	1905.24626474	644.751352755	2019_Feb_21_1629	Sound Switch 12-20-2018	318-laptop	bpl	RC
22	beautiful	1	43	0.2	9	../stimuli/combined/switch-0.2_chunk-500_C_G_alternating_09.mp3	52	9.259	[(None, 0.0), (43, 5.1), (52, 7.807), (52, 9.259)]	20.1811610437	646.450312867	1925.43302329	664.938111308	2019_Feb_21_1629	Sound Switch 12-20-2018	318-laptop	bpl	RC
22	beautiful	1	44	0.3	12	../stimuli/combined/switch-0.3_chunk-500_C_G_alternating_12.mp3	55	3.218	[(None, 0.0), (53, 2.091), (55, 2.656), (55, 3.218)]	14.1409567249	660.596891598	1939.57960242	679.084690434	2019_Feb_21_1629	Sound Switch 12-20-2018	318-laptop	bpl	RC
22	beautiful	1	45	0.8	18	../stimuli/combined/switch-0.8_chunk-500_C_G_alternating_18.mp3	36	3.867	[(None, 0.0), (39, 2.444), (38, 3.055), (36, 3.431), (36, 3.867)]	14.7784991152	675.380749972	1954.3634604	693.868548018	2019_Feb_21_1629	Sound Switch 12-20-2018	318-laptop	bpl	RC
22	beautiful	1	46	0.7	1	../stimuli/combined/switch-0.7_chunk-500_C_G_alternating_01.mp3	46	2.463	[(None, 0.0), (46, 1.851), (46, 2.463)]	13.3559722902	688.742136046	1967.72484687	707.229934487	2019_Feb_21_1629	Sound Switch 12-20-2018	318-laptop	bpl	RC
22	beautiful	1	47	0.5	10	../stimuli/combined/switch-0.5_chunk-500_C_G_alternating_10.mp3	54	4.962	[(None, 0.0), (54, 4.458), (54, 4.962)]	15.9886307378	704.735186869	1983.71789808	723.2229861	2019_Feb_21_1629	Sound Switch 12-20-2018	318-laptop	bpl	RC
22	beautiful	1	48	0.3	11	../stimuli/combined/switch-0.3_chunk-500_C_G_alternating_11.mp3	56	3.103	[(None, 0.0), (56, 2.584), (56, 3.102)]	14.0552544166	718.795741278	1997.7784521	737.283540114	2019_Feb_21_1629	Sound Switch 12-20-2018	318-laptop	bpl	RC
22	beautiful	1	49	0.4	16	../stimuli/combined/switch-0.4_chunk-500_C_G_alternating_16.mp3	59	1.934	[(None, 0.0), (59, 1.32), (59, 1.934)]	12.8539890405	731.65509827	2010.63780909	750.142897105	2019_Feb_21_1629	Sound Switch 12-20-2018	318-laptop	bpl	RC
22	beautiful	1	50	0.4	4	../stimuli/combined/switch-0.4_chunk-500_C_G_alternating_04.mp3	58	3.499	[(None, 0.0), (58, 2.793), (58, 3.499)]	14.4529889405	746.11372265	2025.09643426	764.601522671	2019_Feb_21_1629	Sound Switch 12-20-2018	318-laptop	bpl	RC
22	beautiful	1	51	0.4	6	../stimuli/combined/switch-0.4_chunk-500_C_G_alternating_06.mp3	60	7.787	[(None, 0.0), (60, 6.972), (60, 7.787)]	18.7082700665	764.826545558	2043.80925638	783.314344394	2019_Feb_21_1629	Sound Switch 12-20-2018	318-laptop	bpl	RC
22	beautiful	1	52	0.7	6	../stimuli/combined/switch-0.7_chunk-500_C_G_alternating_06.mp3	68	4.087	[(None, 0.0), (68, 2.069), (68, 4.086)]	15.0090835565	779.840986398	2058.82369722	798.328785628	2019_Feb_21_1629	Sound Switch 12-20-2018	318-laptop	bpl	RC
22	beautiful	1	53	0.6	17	../stimuli/combined/switch-0.6_chunk-500_C_G_alternating_17.mp3	65	3.011	[(None, 0.0), (65, 2.43), (65, 3.011)]	13.9344249405	793.779795468	2072.76250589	812.267593909	2019_Feb_21_1629	Sound Switch 12-20-2018	318-laptop	bpl	RC
22	beautiful	1	54	0.2	7	../stimuli/combined/switch-0.2_chunk-500_C_G_alternating_07.mp3	68	2.68	[(None, 0.0), (68, 1.897), (68, 2.68)]	13.5954751324	807.40253984	2086.38525066	825.890338676	2019_Feb_21_1629	Sound Switch 12-20-2018	318-laptop	bpl	RC
22	beautiful	1	55	0.7	17	../stimuli/combined/switch-0.7_chunk-500_C_G_alternating_17.mp3	59	3.839	[(None, 0.0), (59, 3.098), (59, 3.839)]	14.7569874043	822.173264	2101.15597521	840.661064021	2019_Feb_21_1629	Sound Switch 12-20-2018	318-laptop	bpl	RC
22	beautiful	1	56	0.7	4	../stimuli/combined/switch-0.7_chunk-500_C_G_alternating_04.mp3	63	8.631	[(None, 0.0), (63, 8.019), (63, 8.631)]	19.5554707388	841.733327486	2120.71603831	860.221125926	2019_Feb_21_1629	Sound Switch 12-20-2018	318-laptop	bpl	RC
22	beautiful	1	57	0.9	3	../stimuli/combined/switch-0.9_chunk-500_C_G_alternating_03.mp3	57	2.43	[(None, 0.0), (57, 1.567), (57, 2.429)]	13.3529836856	855.090992423	2134.07370285	873.578790864	2019_Feb_21_1629	Sound Switch 12-20-2018	318-laptop	bpl	RC
22	beautiful	1	58	0.7	19	../stimuli/combined/switch-0.7_chunk-500_C_G_alternating_19.mp3	57	3.228	[(None, 0.0), (57, 2.569), (57, 3.228)]	14.1535875702	869.250068058	2148.23277888	887.737867288	2019_Feb_21_1629	Sound Switch 12-20-2018	318-laptop	bpl	RC
22	beautiful	1	59	0.8	5	../stimuli/combined/switch-0.8_chunk-500_C_G_alternating_05.mp3	63	2.382	[(None, 0.0), (63, 1.677), (63, 2.382)]	13.305477752	882.56033295	2161.54304377	901.048131391	2019_Feb_21_1629	Sound Switch 12-20-2018	318-laptop	bpl	RC
22	beautiful	1	60	0.4	5	../stimuli/combined/switch-0.4_chunk-500_C_G_alternating_05.mp3	63	3.718	[(None, 0.0), (65, 1.904), (63, 3.171), (63, 3.718)]	14.6396380485	897.205243334	2176.18795455	915.69304217	2019_Feb_21_1629	Sound Switch 12-20-2018	318-laptop	bpl	RC
22	beautiful	1	61	0.4	14	../stimuli/combined/switch-0.4_chunk-500_C_G_alternating_14.mp3	59	3.285	[(None, 0.0), (59, 2.281), (59, 3.285)]	14.194143536	911.4037548	2190.38646601	929.891554821	2019_Feb_21_1629	Sound Switch 12-20-2018	318-laptop	bpl	RC
22	beautiful	1	62	0.4	9	../stimuli/combined/switch-0.4_chunk-500_C_G_alternating_09.mp3	64	6.843	[(None, 0.0), (64, 6.293), (64, 6.843)]	17.7751655803	929.185014937	2208.16772615	947.672814563	2019_Feb_21_1629	Sound Switch 12-20-2018	318-laptop	bpl	RC
22	beautiful	1	63	0.3	15	../stimuli/combined/switch-0.3_chunk-500_C_G_alternating_15.mp3	66	6.152	[(None, 0.0), (66, 4.963), (66, 6.152)]	17.0763710184	946.267320888	2225.25003131	964.755120119	2019_Feb_21_1629	Sound Switch 12-20-2018	318-laptop	bpl	RC
22	beautiful	1	64	0.8	4	../stimuli/combined/switch-0.8_chunk-500_C_G_alternating_04.mp3	65	5.117	[(None, 0.0), (65, 4.6), (65, 5.117)]	16.0401802171	962.313102171	2241.29581339	980.800901007	2019_Feb_21_1629	Sound Switch 12-20-2018	318-laptop	bpl	RC
22	beautiful	1	65	0.4	0	../stimuli/combined/switch-0.4_chunk-500_C_G_alternating_00.mp3	60	6.055	[(None, 0.0), (60, 5.444), (60, 6.055)]	16.9769967526	979.295983677	2258.2786945	997.783782908	2019_Feb_21_1629	Sound Switch 12-20-2018	318-laptop	bpl	RC
22	beautiful	1	66	0.2	3	../stimuli/combined/switch-0.2_chunk-500_C_G_alternating_03.mp3	66	5.589	[(None, 0.0), (66, 4.961), (66, 5.589)]	16.5114433451	995.812715162	2274.79542638	1014.30051479	2019_Feb_21_1629	Sound Switch 12-20-2018	318-laptop	bpl	RC
22	beautiful	1	67	0.4	7	../stimuli/combined/switch-0.4_chunk-500_C_G_alternating_07.mp3	68	3.512	[(None, 0.0), (68, 2.979), (68, 3.512)]	14.4343338679	1010.25155762	2289.23426844	1028.73935606	2019_Feb_21_1629	Sound Switch 12-20-2018	318-laptop	bpl	RC
22	beautiful	1	68	0.6	4	../stimuli/combined/switch-0.6_chunk-500_C_G_alternating_04.mp3	57	2.96	[(None, 0.0), (57, 2.425), (57, 2.959)]	13.8818805767	1024.13878916	2303.12149958	1042.6265876	2019_Feb_21_1629	Sound Switch 12-20-2018	318-laptop	bpl	RC
22	beautiful	1	69	0.1	0	../stimuli/combined/switch-0.1_chunk-500_C_G_alternating_00.mp3	78	8.278	[(None, 0.0), (78, 7.651), (78, 8.278)]	19.2011140494	1043.34472551	2322.32743633	1061.83252474	2019_Feb_21_1629	Sound Switch 12-20-2018	318-laptop	bpl	RC
22	beautiful	1	70	0.7	3	../stimuli/combined/switch-0.7_chunk-500_C_G_alternating_03.mp3	67	2.17	[(None, 0.0), (67, 1.731), (67, 2.17)]	13.0928565474	1056.44195038	2335.4246616	1074.92974962	2019_Feb_21_1629	Sound Switch 12-20-2018	318-laptop	bpl	RC
22	beautiful	1	71	0.5	1	../stimuli/combined/switch-0.5_chunk-500_C_G_alternating_01.mp3	58	3.519	[(None, 0.0), (58, 2.843), (58, 3.519)]	14.4424553339	1070.88995305	2349.87266347	1089.37775188	2019_Feb_21_1629	Sound Switch 12-20-2018	318-laptop	bpl	RC
22	beautiful	1	72	0.4	10	../stimuli/combined/switch-0.4_chunk-500_C_G_alternating_10.mp3	49	5.498	[(None, 0.0), (49, 5.026), (49, 5.498)]	16.4194706566	1087.31508996	2366.29780039	1105.80288841	2019_Feb_21_1629	Sound Switch 12-20-2018	318-laptop	bpl	RC
22	beautiful	1	73	0.8	1	../stimuli/combined/switch-0.8_chunk-500_C_G_alternating_01.mp3	56	3.849	[(None, 0.0), (56, 3.265), (56, 3.849)]	14.7709948095	1102.09272261	2381.07543342	1120.58052263	2019_Feb_21_1629	Sound Switch 12-20-2018	318-laptop	bpl	RC
22	beautiful	1	74	0.9	4	../stimuli/combined/switch-0.9_chunk-500_C_G_alternating_04.mp3	41	2.823	[(None, 0.0), (41, 2.351), (41, 2.823)]	13.748118392	1115.84530612	2394.82801694	1134.33310496	2019_Feb_21_1629	Sound Switch 12-20-2018	318-laptop	bpl	RC
22	beautiful	1	75	0.2	6	../stimuli/combined/switch-0.2_chunk-500_C_G_alternating_06.mp3	54	3.637	[(None, 0.0), (54, 3.103), (54, 3.637)]	14.559356241	1130.40921205	2409.39192247	1148.89701049	2019_Feb_21_1629	Sound Switch 12-20-2018	318-laptop	bpl	RC
22	beautiful	1	76	0.4	2	../stimuli/combined/switch-0.4_chunk-500_C_G_alternating_02.mp3	62	3.395	[(None, 0.0), (62, 2.765), (62, 3.395)]	14.3198747346	1144.73343891	2423.71615131	1163.22123972	2019_Feb_21_1629	Sound Switch 12-20-2018	318-laptop	bpl	RC
22	beautiful	1	77	0.4	12	../stimuli/combined/switch-0.4_chunk-500_C_G_alternating_12.mp3	54	4.276	[(None, 0.0), (44, 2.477), (54, 3.869), (54, 4.276)]	15.1964683575	1159.93568297	2438.91839379	1178.4234818	2019_Feb_21_1629	Sound Switch 12-20-2018	318-laptop	bpl	RC
22	beautiful	1	78	0.9	15	../stimuli/combined/switch-0.9_chunk-500_C_G_alternating_15.mp3	59	4.481	[(None, 0.0), (59, 3.963), (59, 4.481)]	15.4037615169	1175.34414747	2454.32685829	1193.8319463	2019_Feb_21_1629	Sound Switch 12-20-2018	318-laptop	bpl	RC
22	beautiful	1	79	0.3	6	../stimuli/combined/switch-0.3_chunk-500_C_G_alternating_06.mp3	58	3.071	[(None, 0.0), (58, 2.302), (58, 3.071)]	13.9923973122	1189.34215177	2468.32486259	1207.82995021	2019_Feb_21_1629	Sound Switch 12-20-2018	318-laptop	bpl	RC
22	beautiful	1	80	0.7	0	../stimuli/combined/switch-0.7_chunk-500_C_G_alternating_00.mp3	62	6.026	[(None, 0.0), (63, 4.912), (62, 5.479), (62, 6.026)]	16.9481506329	1206.29577506	2485.27848588	1224.7835735	2019_Feb_21_1629	Sound Switch 12-20-2018	318-laptop	bpl	RC
22	beautiful	1	81	0.1	4	../stimuli/combined/switch-0.1_chunk-500_C_G_alternating_04.mp3	72	4.135	[(None, 0.0), (72, 3.492), (72, 4.135)]	15.0572149476	1221.35880996	2500.34152078	1239.84660959	2019_Feb_21_1629	Sound Switch 12-20-2018	318-laptop	bpl	RC
22	beautiful	1	82	0.6	8	../stimuli/combined/switch-0.6_chunk-500_C_G_alternating_08.mp3	61	3.869	[(None, 0.0), (61, 3.069), (61, 3.869)]	14.794205094	1236.15858965	2515.14130007	1254.64638809	2019_Feb_21_1629	Sound Switch 12-20-2018	318-laptop	bpl	RC
22	beautiful	1	83	0.2	12	../stimuli/combined/switch-0.2_chunk-500_C_G_alternating_12.mp3	58	4.443	[(None, 0.0), (58, 3.675), (58, 4.443)]	15.3665292082	1251.52961046	2530.51232128	1270.01740929	2019_Feb_21_1629	Sound Switch 12-20-2018	318-laptop	bpl	RC
22	beautiful	1	84	0.3	13	../stimuli/combined/switch-0.3_chunk-500_C_G_alternating_13.mp3	39	4.696	[(None, 0.0), (39, 4.177), (39, 4.695)]	15.6219067408	1267.1571313	2546.13984252	1285.64493053	2019_Feb_21_1629	Sound Switch 12-20-2018	318-laptop	bpl	RC
22	beautiful	1	85	0.3	7	../stimuli/combined/switch-0.3_chunk-500_C_G_alternating_07.mp3	31	3.493	[(None, 0.0), (31, 2.913), (31, 3.493)]	14.4171118558	1281.57954197	2560.56225239	1300.06734041	2019_Feb_21_1629	Sound Switch 12-20-2018	318-laptop	bpl	RC
22	beautiful	1	86	0.9	0	../stimuli/combined/switch-0.9_chunk-500_C_G_alternating_00.mp3	27	2.526	[(None, 0.0), (27, 2.007), (27, 2.526)]	13.4517471128	1295.03683562	2574.01954683	1313.52463485	2019_Feb_21_1629	Sound Switch 12-20-2018	318-laptop	bpl	RC
22	beautiful	1	87	0.3	19	../stimuli/combined/switch-0.3_chunk-500_C_G_alternating_19.mp3	21	4.009	[(None, 0.0), (21, 3.334), (21, 4.009)]	14.9328362072	1309.97501884	2588.95772966	1328.46281807	2019_Feb_21_1629	Sound Switch 12-20-2018	318-laptop	bpl	RC
22	beautiful	1	88	0.1	14	../stimuli/combined/switch-0.1_chunk-500_C_G_alternating_14.mp3	20	3.198	[(None, 0.0), (20, 2.508), (20, 3.198)]	14.1206295509	1324.10003015	2603.08274097	1342.58782898	2019_Feb_21_1629	Sound Switch 12-20-2018	318-laptop	bpl	RC
22	beautiful	1	89	0.9	9	../stimuli/combined/switch-0.9_chunk-500_C_G_alternating_09.mp3	10	2.883	[(None, 0.0), (10, 2.18), (10, 2.883)]	13.7943907952	1337.89884893	2616.88155975	1356.38664776	2019_Feb_21_1629	Sound Switch 12-20-2018	318-laptop	bpl	RC
22	beautiful	1	90	0.6	12	../stimuli/combined/switch-0.6_chunk-500_C_G_alternating_12.mp3	30	2.699	[(None, 0.0), (30, 2.177), (30, 2.699)]	13.6360283325	1351.53942694	2630.52213737	1370.02722617	2019_Feb_21_1629	Sound Switch 12-20-2018	318-laptop	bpl	RC
22	beautiful	1	91	0.7	10	../stimuli/combined/switch-0.7_chunk-500_C_G_alternating_10.mp3	36	3.731	[(None, 0.0), (33, 2.292), (36, 3.242), (36, 3.731)]	14.645427186	1366.19022089	2645.17293132	1384.67801933	2019_Feb_21_1629	Sound Switch 12-20-2018	318-laptop	bpl	RC
22	beautiful	1	92	0.4	19	../stimuli/combined/switch-0.4_chunk-500_C_G_alternating_19.mp3	39	3.226	[(None, 0.0), (39, 2.656), (39, 3.225)]	14.1451563387	1380.34076849	2659.32347931	1398.82856812	2019_Feb_21_1629	Sound Switch 12-20-2018	318-laptop	bpl	RC
22	beautiful	1	93	0.6	16	../stimuli/combined/switch-0.6_chunk-500_C_G_alternating_16.mp3	52	4.786	[(None, 0.0), (44, 3.579), (52, 4.174), (52, 4.786)]	15.7065228944	1396.06758103	2675.05029185	1414.55537947	2019_Feb_21_1629	Sound Switch 12-20-2018	318-laptop	bpl	RC
22	beautiful	1	94	0.3	0	../stimuli/combined/switch-0.3_chunk-500_C_G_alternating_00.mp3	59	3.033	[(None, 0.0), (59, 2.516), (59, 3.033)]	13.9653639527	1410.03730975	2689.02002096	1428.52510898	2019_Feb_21_1629	Sound Switch 12-20-2018	318-laptop	bpl	RC
22	beautiful	1	95	0.8	16	../stimuli/combined/switch-0.8_chunk-500_C_G_alternating_16.mp3	58	4.148	[(None, 0.0), (58, 3.341), (58, 4.148)]	15.0868836842	1425.12853608	2704.11124453	1443.61633017	2019_Feb_21_1629	Sound Switch 12-20-2018	318-laptop	bpl	RC
22	beautiful	1	96	0.4	3	../stimuli/combined/switch-0.4_chunk-500_C_G_alternating_03.mp3	62	4.706	[(None, 0.0), (62, 3.623), (62, 4.706)]	15.6124438797	1440.74351024	2719.72621868	1459.23130433	2019_Feb_21_1629	Sound Switch 12-20-2018	318-laptop	bpl	RC
22	beautiful	1	97	0.6	3	../stimuli/combined/switch-0.6_chunk-500_C_G_alternating_03.mp3	44	4.007	[(None, 0.0), (44, 3.574), (44, 4.007)]	14.8555647353	1455.60065383	2734.58336228	1474.08844832	2019_Feb_21_1629	Sound Switch 12-20-2018	318-laptop	bpl	RC
22	beautiful	1	98	0.2	1	../stimuli/combined/switch-0.2_chunk-500_C_G_alternating_01.mp3	36	2.807	[(None, 0.0), (36, 2.322), (36, 2.807)]	13.6464303678	1469.24931893	2748.23202896	1487.73711579	2019_Feb_21_1629	Sound Switch 12-20-2018	318-laptop	bpl	RC
22	beautiful	1	99	0.7	13	../stimuli/combined/switch-0.7_chunk-500_C_G_alternating_13.mp3	28	3.05	[(None, 0.0), (28, 2.513), (28, 3.05)]	13.961954952	1483.21580736	2762.19851779	1501.70360659	2019_Feb_21_1629	Sound Switch 12-20-2018	318-laptop	bpl	RC
22	beautiful	1	100	0.1	16	../stimuli/combined/switch-0.1_chunk-500_C_G_alternating_16.mp3	56	3.552	[(None, 0.0), (56, 3.071), (56, 3.552)]	14.4780242336	1497.69778269	2776.68049153	1516.18557797	2019_Feb_21_1629	Sound Switch 12-20-2018	318-laptop	bpl	RC
22	beautiful	1	101	0.3	10	../stimuli/combined/switch-0.3_chunk-500_C_G_alternating_10.mp3	41	3.52	[(None, 0.0), (41, 2.99), (41, 3.52)]	14.3787246434	1512.0789499	2791.06165874	1530.56674478	2019_Feb_21_1629	Sound Switch 12-20-2018	318-laptop	bpl	RC
22	beautiful	1	102	0.5	4	../stimuli/combined/switch-0.5_chunk-500_C_G_alternating_04.mp3	39	4.349	[(None, 0.0), (39, 3.812), (39, 4.349)]	15.247166772	1527.32929808	2806.31200772	1545.81709376	2019_Feb_21_1629	Sound Switch 12-20-2018	318-laptop	bpl	RC
22	beautiful	1	103	0.6	18	../stimuli/combined/switch-0.6_chunk-500_C_G_alternating_18.mp3	35	3.832	[(None, 0.0), (35, 3.297), (35, 3.832)]	14.7012505596	1542.03279168	2821.01550131	1560.52058775	2019_Feb_21_1629	Sound Switch 12-20-2018	318-laptop	bpl	RC
22	beautiful	1	104	0.5	15	../stimuli/combined/switch-0.5_chunk-500_C_G_alternating_15.mp3	54	4.676	[(None, 0.0), (54, 4.25), (54, 4.676)]	15.5516630732	1557.63639499	2836.61910344	1576.12418909	2019_Feb_21_1629	Sound Switch 12-20-2018	318-laptop	bpl	RC
22	beautiful	1	105	0.4	18	../stimuli/combined/switch-0.4_chunk-500_C_G_alternating_18.mp3	55	3.448	[(None, 0.0), (55, 2.791), (55, 3.447)]	14.2819707406	1571.9197502	2850.90245904	1590.40754508	2019_Feb_21_1629	Sound Switch 12-20-2018	318-laptop	bpl	RC
22	beautiful	1	106	0.2	18	../stimuli/combined/switch-0.2_chunk-500_C_G_alternating_18.mp3	57	6.486	[(None, 0.0), (42, 5.19), (57, 6.036), (57, 6.486)]	17.3273407148	1589.24891315	2868.231622	1607.73670883	2019_Feb_21_1629	Sound Switch 12-20-2018	318-laptop	bpl	RC
22	beautiful	1	107	0.3	18	../stimuli/combined/switch-0.3_chunk-500_C_G_alternating_18.mp3	27	2.767	[(None, 0.0), (27, 1.953), (27, 2.767)]	13.6215507476	1602.87303132	2881.85574016	1621.36082699	2019_Feb_21_1629	Sound Switch 12-20-2018	318-laptop	bpl	RC
22	beautiful	1	108	0.9	1	../stimuli/combined/switch-0.9_chunk-500_C_G_alternating_01.mp3	45	3.213	[(None, 0.0), (45, 2.727), (45, 3.213)]	14.0396871211	1616.91513888	2895.8978497	1635.4029389	2019_Feb_21_1629	Sound Switch 12-20-2018	318-laptop	bpl	RC
22	beautiful	1	109	0.8	10	../stimuli/combined/switch-0.8_chunk-500_C_G_alternating_10.mp3	58	2.517	[(None, 0.0), (58, 2.122), (58, 2.517)]	13.4390135392	1630.35898618	2909.34169503	1648.84678107	2019_Feb_21_1629	Sound Switch 12-20-2018	318-laptop	bpl	RC
22	beautiful	1	110	0.8	7	../stimuli/combined/switch-0.8_chunk-500_C_G_alternating_07.mp3	59	3.635	[(None, 0.0), (59, 3.089), (59, 3.635)]	14.4797769373	1644.84114484	2923.82385447	1663.32894051	2019_Feb_21_1629	Sound Switch 12-20-2018	318-laptop	bpl	RC
22	beautiful	1	111	0.5	12	../stimuli/combined/switch-0.5_chunk-500_C_G_alternating_12.mp3	58	2.995	[(None, 0.0), (58, 2.502), (58, 2.995)]	13.8409449111	1658.69470439	2937.67741521	1677.18250323	2019_Feb_21_1629	Sound Switch 12-20-2018	318-laptop	bpl	RC
22	beautiful	1	112	0.9	6	../stimuli/combined/switch-0.9_chunk-500_C_G_alternating_06.mp3	60	2.694	[(None, 0.0), (60, 2.065), (60, 2.694)]	13.6235756814	1672.32259783	2951.30530667	1690.81039311	2019_Feb_21_1629	Sound Switch 12-20-2018	318-laptop	bpl	RC
22	beautiful	1	113	0.9	14	../stimuli/combined/switch-0.9_chunk-500_C_G_alternating_14.mp3	30	2.63	[(None, 0.0), (30, 2.005), (30, 2.63)]	13.4714440879	1685.7964339	2964.77914314	1704.28422958	2019_Feb_21_1629	Sound Switch 12-20-2018	318-laptop	bpl	RC
22	beautiful	1	114	0.3	14	../stimuli/combined/switch-0.3_chunk-500_C_G_alternating_14.mp3	54	3.204	[(None, 0.0), (54, 2.71), (54, 3.204)]	14.0419858654	1699.84128747	2978.82399631	1718.32908275	2019_Feb_21_1629	Sound Switch 12-20-2018	318-laptop	bpl	RC
22	beautiful	1	115	0.1	8	../stimuli/combined/switch-0.1_chunk-500_C_G_alternating_08.mp3	27	3.52	[(None, 0.0), (27, 2.755), (27, 3.52)]	14.3618163478	1714.20490354	2993.18761238	1732.69269882	2019_Feb_21_1629	Sound Switch 12-20-2018	318-laptop	bpl	RC
22	beautiful	1	116	0.2	13	../stimuli/combined/switch-0.2_chunk-500_C_G_alternating_13.mp3	40	4.849	[(None, 0.0), (47, 3.402), (40, 3.991), (40, 4.849)]	15.6868278949	1729.89401793	3008.87672638	1748.38181203	2019_Feb_21_1629	Sound Switch 12-20-2018	318-laptop	bpl	RC
22	beautiful	1	117	0.1	9	../stimuli/combined/switch-0.1_chunk-500_C_G_alternating_09.mp3	61	3.007	[(None, 0.0), (61, 2.462), (61, 3.007)]	13.8309952757	1743.72651106	3022.70921951	1762.21430555	2019_Feb_21_1629	Sound Switch 12-20-2018	318-laptop	bpl	RC
22	beautiful	1	118	0.1	12	../stimuli/combined/switch-0.1_chunk-500_C_G_alternating_12.mp3	55	3.411	[(None, 0.0), (55, 3.015), (55, 3.411)]	14.2456139935	1757.98239315	3036.9651016	1776.47018725	2019_Feb_21_1629	Sound Switch 12-20-2018	318-laptop	bpl	RC
22	beautiful	1	119	0.1	15	../stimuli/combined/switch-0.1_chunk-500_C_G_alternating_15.mp3	24	2.825	[(None, 0.0), (24, 2.209), (24, 2.825)]	13.6503873846	1771.63437401	3050.61708246	1790.1221685	2019_Feb_21_1629	Sound Switch 12-20-2018	318-laptop	bpl	RC
22	beautiful	1	120	0.9	8	../stimuli/combined/switch-0.9_chunk-500_C_G_alternating_08.mp3	43	2.757	[(None, 0.0), (43, 2.33), (43, 2.757)]	13.5715599734	1785.20814818	3064.19085662	1803.69594227	2019_Feb_21_1629	Sound Switch 12-20-2018	318-laptop	bpl	RC
22	beautiful	1	121	0.3	5	../stimuli/combined/switch-0.3_chunk-500_C_G_alternating_05.mp3	45	4.436	[(None, 0.0), (45, 3.836), (45, 4.436)]	15.2588043132	1800.46891737	3079.451627	1818.95671423	2019_Feb_21_1629	Sound Switch 12-20-2018	318-laptop	bpl	RC
22	beautiful	1	122	0.5	13	../stimuli/combined/switch-0.5_chunk-500_C_G_alternating_13.mp3	40	3.413	[(None, 0.0), (40, 2.696), (40, 3.413)]	14.2776091321	1814.74888135	3093.73159019	1833.23667663	2019_Feb_21_1629	Sound Switch 12-20-2018	318-laptop	bpl	RC
22	beautiful	1	123	0.1	2	../stimuli/combined/switch-0.1_chunk-500_C_G_alternating_02.mp3	39	3.266	[(None, 0.0), (39, 2.736), (39, 3.266)]	14.1050112863	1828.85614357	3107.83885281	1847.34393885	2019_Feb_21_1629	Sound Switch 12-20-2018	318-laptop	bpl	RC
22	beautiful	1	124	0.3	8	../stimuli/combined/switch-0.3_chunk-500_C_G_alternating_08.mp3	32	3.954	[(None, 0.0), (28, 2.266), (32, 3.481), (32, 3.954)]	14.7842807455	1843.64271397	3122.62542242	1862.13050846	2019_Feb_21_1629	Sound Switch 12-20-2018	318-laptop	bpl	RC
22	beautiful	1	125	0.6	9	../stimuli/combined/switch-0.6_chunk-500_C_G_alternating_09.mp3	42	3.301	[(None, 0.0), (42, 2.491), (42, 3.301)]	14.1448335346	1857.789527	3136.77223545	1876.2773211	2019_Feb_21_1629	Sound Switch 12-20-2018	318-laptop	bpl	RC
22	beautiful	1	126	0.5	2	../stimuli/combined/switch-0.5_chunk-500_C_G_alternating_02.mp3	57	2.525	[(None, 0.0), (57, 2.054), (57, 2.525)]	13.3526581157	1871.14365097	3150.12635942	1889.63144546	2019_Feb_21_1629	Sound Switch 12-20-2018	318-laptop	bpl	RC
22	beautiful	1	127	0.5	5	../stimuli/combined/switch-0.5_chunk-500_C_G_alternating_05.mp3	45	6.037	[(None, 0.0), (45, 5.603), (45, 6.037)]	16.8521529688	1887.99780003	3166.98050848	1906.48559413	2019_Feb_21_1629	Sound Switch 12-20-2018	318-laptop	bpl	RC
22	beautiful	1	128	0.7	2	../stimuli/combined/switch-0.7_chunk-500_C_G_alternating_02.mp3	45	4.12	[(None, 0.0), (45, 3.706), (45, 4.12)]	14.9909650419	1902.99164423	3181.97435466	1921.47944228	2019_Feb_21_1629	Sound Switch 12-20-2018	318-laptop	bpl	RC
22	beautiful	1	129	0.6	14	../stimuli/combined/switch-0.6_chunk-500_C_G_alternating_14.mp3	58	4.187	[(None, 0.0), (58, 3.838), (58, 4.187)]	15.041778038	1918.0362074	3197.01891663	1936.52400307	2019_Feb_21_1629	Sound Switch 12-20-2018	318-laptop	bpl	RC
22	beautiful	1	130	0.1	3	../stimuli/combined/switch-0.1_chunk-500_C_G_alternating_03.mp3	54	3.86	[(None, 0.0), (54, 3.447), (54, 3.86)]	14.704274724	1932.74342529	3211.72613453	1951.23122017	2019_Feb_21_1629	Sound Switch 12-20-2018	318-laptop	bpl	RC
22	beautiful	1	131	0.3	16	../stimuli/combined/switch-0.3_chunk-500_C_G_alternating_16.mp3	64	2.855	[(None, 0.0), (64, 2.255), (64, 2.855)]	13.6819644979	1946.42769248	3225.41040093	1964.91548697	2019_Feb_21_1629	Sound Switch 12-20-2018	318-laptop	bpl	RC
22	beautiful	1	132	0.2	19	../stimuli/combined/switch-0.2_chunk-500_C_G_alternating_19.mp3	55	2.604	[(None, 0.0), (55, 2.189), (55, 2.604)]	13.4237232151	1959.85341139	3238.83611984	1978.34120588	2019_Feb_21_1629	Sound Switch 12-20-2018	318-laptop	bpl	RC
22	beautiful	1	133	0.8	9	../stimuli/combined/switch-0.8_chunk-500_C_G_alternating_09.mp3	54	4.132	[(None, 0.0), (54, 2.94), (54, 4.132)]	14.9691483069	1974.82405677	3253.80676521	1993.31185165	2019_Feb_21_1629	Sound Switch 12-20-2018	318-laptop	bpl	RC
22	beautiful	1	134	0.2	16	../stimuli/combined/switch-0.2_chunk-500_C_G_alternating_16.mp3	61	3.958	[(None, 0.0), (61, 3.516), (61, 3.958)]	14.7944544078	1989.62003116	3268.60274	2008.10782565	2019_Feb_21_1629	Sound Switch 12-20-2018	318-laptop	bpl	RC
22	beautiful	1	135	0.2	17	../stimuli/combined/switch-0.2_chunk-500_C_G_alternating_17.mp3	41	2.593	[(None, 0.0), (41, 2.165), (41, 2.593)]	13.4139695537	2003.03554006	3282.01824851	2021.52333415	2019_Feb_21_1629	Sound Switch 12-20-2018	318-laptop	bpl	RC
22	beautiful	1	136	0.5	0	../stimuli/combined/switch-0.5_chunk-500_C_G_alternating_00.mp3	50	3.379	[(None, 0.0), (50, 2.361), (50, 3.379)]	14.196125798	2017.23377574	3296.21648419	2035.72157023	2019_Feb_21_1629	Sound Switch 12-20-2018	318-laptop	bpl	RC
22	beautiful	1	137	0.4	17	../stimuli/combined/switch-0.4_chunk-500_C_G_alternating_17.mp3	46	3.39	[(None, 0.0), (46, 2.868), (46, 3.39)]	14.2201361783	2031.45602377	3310.43873222	2049.94381826	2019_Feb_21_1629	Sound Switch 12-20-2018	318-laptop	bpl	RC
22	beautiful	1	138	0.4	8	../stimuli/combined/switch-0.4_chunk-500_C_G_alternating_08.mp3	53	5.079	[(None, 0.0), (53, 4.62), (53, 5.079)]	15.8737626667	2047.33189435	3326.31460359	2065.81968963	2019_Feb_21_1629	Sound Switch 12-20-2018	318-laptop	bpl	RC
22	beautiful	1	139	0.8	15	../stimuli/combined/switch-0.8_chunk-500_C_G_alternating_15.mp3	61	4.077	[(None, 0.0), (61, 3.453), (61, 4.077)]	14.8863492598	2062.22036416	3341.2030726	2080.70815825	2019_Feb_21_1629	Sound Switch 12-20-2018	318-laptop	bpl	RC
22	beautiful	1	140	0.9	17	../stimuli/combined/switch-0.9_chunk-500_C_G_alternating_17.mp3	59	3.688	[(None, 0.0), (59, 3.248), (59, 3.688)]	14.5590863815	2076.78139487	3355.76410371	2095.26919015	2019_Feb_21_1629	Sound Switch 12-20-2018	318-laptop	bpl	RC
22	beautiful	1	141	0.8	14	../stimuli/combined/switch-0.8_chunk-500_C_G_alternating_14.mp3	33	2.658	[(None, 0.0), (33, 1.661), (33, 2.658)]	13.5124421807	2090.29614844	3369.27885847	2108.7839453	2019_Feb_21_1629	Sound Switch 12-20-2018	318-laptop	bpl	RC
22	beautiful	1	142	0.8	12	../stimuli/combined/switch-0.8_chunk-500_C_G_alternating_12.mp3	31	3.765	[(None, 0.0), (31, 3.124), (31, 3.765)]	14.6534471089	2104.95308436	3383.9357936	2123.44088043	2019_Feb_21_1629	Sound Switch 12-20-2018	318-laptop	bpl	RC
22	beautiful	1	143	0.8	6	../stimuli/combined/switch-0.8_chunk-500_C_G_alternating_06.mp3	35	2.631	[(None, 0.0), (35, 2.187), (35, 2.631)]	13.4986915965	2118.45475231	3397.43746155	2136.94254799	2019_Feb_21_1629	Sound Switch 12-20-2018	318-laptop	bpl	RC
22	beautiful	1	144	0.7	16	../stimuli/combined/switch-0.7_chunk-500_C_G_alternating_16.mp3	29	5.748	[(None, 0.0), (29, 4.406), (29, 5.748)]	16.5964731778	2135.05384151	3414.03654996	2153.54163639	2019_Feb_21_1629	Sound Switch 12-20-2018	318-laptop	bpl	RC
22	beautiful	1	145	0.1	1	../stimuli/combined/switch-0.1_chunk-500_C_G_alternating_01.mp3	57	3.877	[(None, 0.0), (57, 2.705), (57, 3.877)]	14.7123977705	2149.76859413	3428.75130376	2168.2563902	2019_Feb_21_1629	Sound Switch 12-20-2018	318-laptop	bpl	RC
22	beautiful	1	146	0.9	5	../stimuli/combined/switch-0.9_chunk-500_C_G_alternating_05.mp3	38	3.066	[(None, 0.0), (38, 2.568), (38, 3.066)]	13.931186627	2163.70268322	3442.68539246	2182.1904785	2019_Feb_21_1629	Sound Switch 12-20-2018	318-laptop	bpl	RC
22	beautiful	1	147	0.2	2	../stimuli/combined/switch-0.2_chunk-500_C_G_alternating_02.mp3	32	2.95	[(None, 0.0), (33, 2.318), (32, 2.367), (32, 2.95)]	13.8020780364	2177.52021951	3456.50292875	2196.00801518	2019_Feb_21_1629	Sound Switch 12-20-2018	318-laptop	bpl	RC
22	beautiful	1	148	0.1	18	../stimuli/combined/switch-0.1_chunk-500_C_G_alternating_18.mp3	21	3.07	[(None, 0.0), (21, 2.454), (21, 3.07)]	13.9167434166	2191.43950189	3470.42221113	2209.92729757	2019_Feb_21_1629	Sound Switch 12-20-2018	318-laptop	bpl	RC
22	beautiful	1	149	0.9	19	../stimuli/combined/switch-0.9_chunk-500_C_G_alternating_19.mp3	18	3.462	[(None, 0.0), (18, 2.966), (18, 3.462)]	14.3034318775	2205.74536764	3484.72807688	2224.23316292	2019_Feb_21_1629	Sound Switch 12-20-2018	318-laptop	bpl	RC
22	beautiful	1	150	0.9	10	../stimuli/combined/switch-0.9_chunk-500_C_G_alternating_10.mp3	38	5.537	[(None, 0.0), (38, 5.142), (38, 5.536)]	16.3626196044	2222.11084942	3501.09355787	2240.59864351	2019_Feb_21_1629	Sound Switch 12-20-2018	318-laptop	bpl	RC
22	beautiful	1	151	0.8	2	../stimuli/combined/switch-0.8_chunk-500_C_G_alternating_02.mp3	57	3.352	[(None, 0.0), (57, 2.972), (57, 3.352)]	14.171743225	2236.2841715	3515.26688034	2254.77196638	2019_Feb_21_1629	Sound Switch 12-20-2018	318-laptop	bpl	RC
22	beautiful	1	152	0.6	19	../stimuli/combined/switch-0.6_chunk-500_C_G_alternating_19.mp3	42	2.959	[(None, 0.0), (42, 2.546), (42, 2.959)]	13.8002135169	2250.08684259	3529.06955104	2268.57463708	2019_Feb_21_1629	Sound Switch 12-20-2018	318-laptop	bpl	RC
22	beautiful	1	153	0.9	16	../stimuli/combined/switch-0.9_chunk-500_C_G_alternating_16.mp3	39	2.993	[(None, 0.0), (39, 2.587), (39, 2.993)]	13.8198433235	2263.90820195	3542.8909104	2282.39599644	2019_Feb_21_1629	Sound Switch 12-20-2018	318-laptop	bpl	RC
22	beautiful	1	154	0.5	9	../stimuli/combined/switch-0.5_chunk-500_C_G_alternating_09.mp3	54	5.356	[(None, 0.0), (54, 4.891), (54, 5.356)]	16.1716088879	2280.08128301	3559.06399146	2298.5690775	2019_Feb_21_1629	Sound Switch 12-20-2018	318-laptop	bpl	RC
22	beautiful	1	155	0.5	11	../stimuli/combined/switch-0.5_chunk-500_C_G_alternating_11.mp3	28	2.596	[(None, 0.0), (28, 2.139), (28, 2.596)]	13.4221664855	2293.50509078	3572.48779963	2311.99288527	2019_Feb_21_1629	Sound Switch 12-20-2018	318-laptop	bpl	RC
22	beautiful	1	156	0.3	17	../stimuli/combined/switch-0.3_chunk-500_C_G_alternating_17.mp3	53	3.953	[(None, 0.0), (53, 3.432), (53, 3.953)]	14.8005548911	2308.30763781	3587.29034705	2326.7954327	2019_Feb_21_1629	Sound Switch 12-20-2018	318-laptop	bpl	RC
22	beautiful	1	157	0.6	5	../stimuli/combined/switch-0.6_chunk-500_C_G_alternating_05.mp3	65	2.634	[(None, 0.0), (65, 2.102), (65, 2.634)]	13.4450314448	2321.75479139	3600.73750102	2340.24258825	2019_Feb_21_1629	Sound Switch 12-20-2018	318-laptop	bpl	RC
22	beautiful	1	158	0.2	0	../stimuli/combined/switch-0.2_chunk-500_C_G_alternating_00.mp3	43	3.787	[(None, 0.0), (56, 2.445), (43, 3.329), (43, 3.786)]	14.6535490471	2336.41574478	3615.39845362	2354.90353966	2019_Feb_21_1629	Sound Switch 12-20-2018	318-laptop	bpl	RC
22	beautiful	1	159	0.1	17	../stimuli/combined/switch-0.1_chunk-500_C_G_alternating_17.mp3	45	4.168	[(None, 0.0), (45, 3.774), (45, 4.168)]	14.9966787135	2351.41458158	3630.39729003	2369.90237567	2019_Feb_21_1629	Sound Switch 12-20-2018	318-laptop	bpl	RC
22	beautiful	1	160	0.7	7	../stimuli/combined/switch-0.7_chunk-500_C_G_alternating_07.mp3	56	2.947	[(None, 0.0), (56, 2.568), (56, 2.947)]	13.7770790933	2365.19365044	3644.17636047	2383.68144809	2019_Feb_21_1629	Sound Switch 12-20-2018	318-laptop	bpl	RC
22	beautiful	1	161	0.1	5	../stimuli/combined/switch-0.1_chunk-500_C_G_alternating_05.mp3	35	2.469	[(None, 0.0), (35, 1.915), (35, 2.469)]	13.3234042436	2378.51945141	3657.50216065	2397.00724788	2019_Feb_21_1629	Sound Switch 12-20-2018	318-laptop	bpl	RC
22	beautiful	1	162	0.9	18	../stimuli/combined/switch-0.9_chunk-500_C_G_alternating_18.mp3	57	3.587	[(None, 0.0), (57, 3.183), (57, 3.587)]	14.447964339	2392.97104285	3671.9537517	2411.45883774	2019_Feb_21_1629	Sound Switch 12-20-2018	318-laptop	bpl	RC
22	beautiful	1	163	0.6	6	../stimuli/combined/switch-0.6_chunk-500_C_G_alternating_06.mp3	42	3.065	[(None, 0.0), (42, 2.648), (42, 3.065)]	13.8986268776	2406.87233356	3685.85504201	2425.36012765	2019_Feb_21_1629	Sound Switch 12-20-2018	318-laptop	bpl	RC
22	beautiful	1	164	0.2	15	../stimuli/combined/switch-0.2_chunk-500_C_G_alternating_15.mp3	46	3.765	[(None, 0.0), (46, 3.275), (46, 3.765)]	14.5928693884	2421.46744914	3700.45015759	2439.95524363	2019_Feb_21_1629	Sound Switch 12-20-2018	318-laptop	bpl	RC
22	beautiful	1	165	0.8	17	../stimuli/combined/switch-0.8_chunk-500_C_G_alternating_17.mp3	35	3.11	[(None, 0.0), (35, 2.557), (35, 3.11)]	13.9537275968	2435.42328109	3714.40599033	2453.91107637	2019_Feb_21_1629	Sound Switch 12-20-2018	318-laptop	bpl	RC
22	beautiful	1	166	0.4	1	../stimuli/combined/switch-0.4_chunk-500_C_G_alternating_01.mp3	65	2.11	[(None, 0.0), (65, 1.762), (65, 2.11)]	12.9677867612	2448.39342428	3727.37613352	2466.88122074	2019_Feb_21_1629	Sound Switch 12-20-2018	318-laptop	bpl	RC
22	beautiful	1	167	0.3	9	../stimuli/combined/switch-0.3_chunk-500_C_G_alternating_09.mp3	70	2.227	[(None, 0.0), (70, 1.644), (70, 2.227)]	13.1055834042	2461.50179992	3740.48450916	2479.98959559	2019_Feb_21_1629	Sound Switch 12-20-2018	318-laptop	bpl	RC
22	beautiful	1	168	0.7	8	../stimuli/combined/switch-0.7_chunk-500_C_G_alternating_08.mp3	68	2.434	[(None, 0.0), (68, 2.013), (68, 2.434)]	13.2772926497	2474.78157543	3753.76428467	2493.26937111	2019_Feb_21_1629	Sound Switch 12-20-2018	318-laptop	bpl	RC
22	beautiful	1	169	0.6	2	../stimuli/combined/switch-0.6_chunk-500_C_G_alternating_02.mp3	64	3.493	[(None, 0.0), (64, 3.033), (64, 3.493)]	14.3493384097	2489.13341686	3768.1161257	2507.62121214	2019_Feb_21_1629	Sound Switch 12-20-2018	318-laptop	bpl	RC
22	beautiful	1	170	0.1	11	../stimuli/combined/switch-0.1_chunk-500_C_G_alternating_11.mp3	54	3.482	[(None, 0.0), (54, 2.851), (54, 3.482)]	14.3238953641	2503.45975281	3782.44246166	2521.9475473	2019_Feb_21_1629	Sound Switch 12-20-2018	318-laptop	bpl	RC
22	beautiful	1	171	0.9	12	../stimuli/combined/switch-0.9_chunk-500_C_G_alternating_12.mp3	58	2.665	[(None, 0.0), (58, 2.225), (58, 2.665)]	13.5018323181	2516.96361164	3795.94632246	2535.45141088	2019_Feb_21_1629	Sound Switch 12-20-2018	318-laptop	bpl	RC
22	beautiful	1	172	0.5	3	../stimuli/combined/switch-0.5_chunk-500_C_G_alternating_03.mp3	47	2.725	[(None, 0.0), (47, 2.109), (47, 2.725)]	13.6172025728	2530.58463887	3809.56734851	2549.07243494	2019_Feb_21_1629	Sound Switch 12-20-2018	318-laptop	bpl	RC
22	beautiful	1	173	0.6	15	../stimuli/combined/switch-0.6_chunk-500_C_G_alternating_15.mp3	38	3.28	[(None, 0.0), (38, 2.853), (38, 3.28)]	14.1510146202	2544.73858639	3823.72129642	2563.22638325	2019_Feb_21_1629	Sound Switch 12-20-2018	318-laptop	bpl	RC
22	beautiful	1	174	0.3	3	../stimuli/combined/switch-0.3_chunk-500_C_G_alternating_03.mp3	42	3.648	[(None, 0.0), (42, 3.238), (42, 3.648)]	14.5336152831	2559.27497375	3838.25768378	2577.76277141	2019_Feb_21_1629	Sound Switch 12-20-2018	318-laptop	bpl	RC
22	beautiful	1	175	0.6	7	../stimuli/combined/switch-0.6_chunk-500_C_G_alternating_07.mp3	34	4.342	[(None, 0.0), (34, 3.929), (34, 4.342)]	15.2310087884	2574.50913946	3853.49184949	2592.99693711	2019_Feb_21_1629	Sound Switch 12-20-2018	318-laptop	bpl	RC
22	beautiful	1	176	0.6	0	../stimuli/combined/switch-0.6_chunk-500_C_G_alternating_00.mp3	55	2.488	[(None, 0.0), (55, 2.154), (55, 2.488)]	13.3777372659	2587.89091791	3866.87362833	2606.37871556	2019_Feb_21_1629	Sound Switch 12-20-2018	318-laptop	bpl	RC
22	beautiful	1	177	0.6	1	../stimuli/combined/switch-0.6_chunk-500_C_G_alternating_01.mp3	61	3.373	[(None, 0.0), (61, 2.931), (61, 3.373)]	14.2488732478	2602.14289829	3881.12560713	2620.63069357	2019_Feb_21_1629	Sound Switch 12-20-2018	318-laptop	bpl	RC
22	beautiful	1	178	0.5	19	../stimuli/combined/switch-0.5_chunk-500_C_G_alternating_19.mp3	40	3.644	[(None, 0.0), (40, 2.988), (40, 3.644)]	14.5416960529	2616.68779473	3895.67050397	2635.1755904	2019_Feb_21_1629	Sound Switch 12-20-2018	318-laptop	bpl	RC
22	beautiful	1	179	0.7	14	../stimuli/combined/switch-0.7_chunk-500_C_G_alternating_14.mp3	54	4.284	[(None, 0.0), (54, 3.89), (54, 4.284)]	15.1267486044	2631.81711668	3910.79982671	2650.30491354	2019_Feb_21_1629	Sound Switch 12-20-2018	318-laptop	bpl	RC
22	beautiful	1	180	0.9	7	../stimuli/combined/switch-0.9_chunk-500_C_G_alternating_07.mp3	56	2.376	[(None, 0.0), (56, 2.011), (56, 2.376)]	13.2467349178	2645.06629455	3924.04900379	2663.55409102	2019_Feb_21_1629	Sound Switch 12-20-2018	318-laptop	bpl	RC
22	beautiful	2	181	0.7	15	../stimuli/combined/switch-0.7_chunk-500_C_G_alternating_15.mp3	44	2.498	[(None, 0.0), (44, 2.08), (44, 2.498)]	13.3281103871	13.3285141886	3941.73475541	2681.23984106	2019_Feb_21_1629	Sound Switch 12-20-2018	318-laptop	bpl	RC
22	beautiful	2	182	0.8	18	../stimuli/combined/switch-0.8_chunk-500_C_G_alternating_18.mp3	45	3.027	[(None, 0.0), (45, 2.584), (45, 3.027)]	13.854686803	27.1853088982	3955.59155012	2695.09663577	2019_Feb_21_1629	Sound Switch 12-20-2018	318-laptop	bpl	RC
22	beautiful	2	183	0.4	2	../stimuli/combined/switch-0.4_chunk-500_C_G_alternating_02.mp3	56	2.635	[(None, 0.0), (56, 2.221), (56, 2.635)]	13.4603095205	40.6476097682	3969.05385138	2708.55893743	2019_Feb_21_1629	Sound Switch 12-20-2018	318-laptop	bpl	RC
22	beautiful	2	184	0.8	0	../stimuli/combined/switch-0.8_chunk-500_C_G_alternating_00.mp3	55	2.535	[(None, 0.0), (55, 2.091), (55, 2.535)]	13.3547691832	54.0039269886	3982.41016821	2721.91525425	2019_Feb_21_1629	Sound Switch 12-20-2018	318-laptop	bpl	RC
22	beautiful	2	185	0.6	10	../stimuli/combined/switch-0.6_chunk-500_C_G_alternating_10.mp3	40	2.171	[(None, 0.0), (40, 1.744), (40, 2.171)]	12.9878895133	66.9938177291	3995.40005895	2734.9051446	2019_Feb_21_1629	Sound Switch 12-20-2018	318-laptop	bpl	RC
22	beautiful	2	186	0.5	8	../stimuli/combined/switch-0.5_chunk-500_C_G_alternating_08.mp3	37	2.487	[(None, 0.0), (37, 2.091), (37, 2.487)]	13.3184005829	80.314266162	4008.72050738	2748.22559342	2019_Feb_21_1629	Sound Switch 12-20-2018	318-laptop	bpl	RC
22	beautiful	2	187	0.3	16	../stimuli/combined/switch-0.3_chunk-500_C_G_alternating_16.mp3	56	2.471	[(None, 0.0), (56, 2.071), (56, 2.471)]	13.289876082	93.6058716362	4022.01211286	2761.5171985	2019_Feb_21_1629	Sound Switch 12-20-2018	318-laptop	bpl	RC
22	beautiful	2	188	0.5	1	../stimuli/combined/switch-0.5_chunk-500_C_G_alternating_01.mp3	53	2.313	[(None, 0.0), (53, 1.918), (53, 2.313)]	13.1311848885	106.739665034	4035.14590626	2774.6509923	2019_Feb_21_1629	Sound Switch 12-20-2018	318-laptop	bpl	RC
22	beautiful	2	189	0.6	19	../stimuli/combined/switch-0.6_chunk-500_C_G_alternating_19.mp3	45	3.006	[(None, 0.0), (45, 2.574), (45, 3.006)]	13.836657188	120.578329771	4048.98457218	2788.4896594	2019_Feb_21_1629	Sound Switch 12-20-2018	318-laptop	bpl	RC
22	beautiful	2	190	0.1	7	../stimuli/combined/switch-0.1_chunk-500_C_G_alternating_07.mp3	60	2.545	[(None, 0.0), (60, 2.134), (60, 2.545)]	13.4285727832	134.009255429	4062.41549902	2801.92058625	2019_Feb_21_1629	Sound Switch 12-20-2018	318-laptop	bpl	RC
22	beautiful	2	191	0.2	0	../stimuli/combined/switch-0.2_chunk-500_C_G_alternating_00.mp3	57	4.401	[(None, 0.0), (57, 3.73), (57, 4.401)]	15.2486365775	149.261519897	4077.66776191	2817.17284834	2019_Feb_21_1629	Sound Switch 12-20-2018	318-laptop	bpl	RC
22	beautiful	2	192	0.9	19	../stimuli/combined/switch-0.9_chunk-500_C_G_alternating_19.mp3	33	2.095	[(None, 0.0), (33, 1.677), (33, 2.095)]	12.9563151658	162.221091552	4090.62733949	2830.13243067	2019_Feb_21_1629	Sound Switch 12-20-2018	318-laptop	bpl	RC
22	beautiful	2	193	0.1	2	../stimuli/combined/switch-0.1_chunk-500_C_G_alternating_02.mp3	56	2.337	[(None, 0.0), (56, 1.861), (56, 2.337)]	13.2428312406	175.467937495	4103.87417951	2843.37926634	2019_Feb_21_1629	Sound Switch 12-20-2018	318-laptop	bpl	RC
22	beautiful	2	194	0.6	3	../stimuli/combined/switch-0.6_chunk-500_C_G_alternating_03.mp3	56	2.65	[(None, 0.0), (56, 2.222), (56, 2.65)]	13.5171803281	188.988029382	4117.39427139	2856.89935783	2019_Feb_21_1629	Sound Switch 12-20-2018	318-laptop	bpl	RC
22	beautiful	2	195	0.4	18	../stimuli/combined/switch-0.4_chunk-500_C_G_alternating_18.mp3	42	2.304	[(None, 0.0), (42, 1.925), (42, 2.304)]	13.1684970092	202.15969319	4130.5659356	2870.07102243	2019_Feb_21_1629	Sound Switch 12-20-2018	318-laptop	bpl	RC
22	beautiful	2	196	0.2	11	../stimuli/combined/switch-0.2_chunk-500_C_G_alternating_11.mp3	36	2.449	[(None, 0.0), (36, 2.003), (36, 2.449)]	13.3321993704	215.494923837	4143.90116624	2883.40625347	2019_Feb_21_1629	Sound Switch 12-20-2018	318-laptop	bpl	RC
22	beautiful	2	197	0.9	4	../stimuli/combined/switch-0.9_chunk-500_C_G_alternating_04.mp3	68	14.267	[(None, 0.0), (68, 1.673), (68, 14.267)]	25.1332765957	240.630501547	4169.03674277	2908.54182881	2019_Feb_21_1629	Sound Switch 12-20-2018	318-laptop	bpl	RC
22	beautiful	2	198	0.4	3	../stimuli/combined/switch-0.4_chunk-500_C_G_alternating_03.mp3	56	4.209	[(None, 0.0), (56, 3.795), (56, 4.209)]	15.0304305068	255.662740073	4184.06898129	2923.57406694	2019_Feb_21_1629	Sound Switch 12-20-2018	318-laptop	bpl	RC
22	beautiful	2	199	0.7	2	../stimuli/combined/switch-0.7_chunk-500_C_G_alternating_02.mp3	35	2.066	[(None, 0.0), (35, 1.729), (35, 2.066)]	12.8848450797	268.549990577	4196.9562318	2936.46131744	2019_Feb_21_1629	Sound Switch 12-20-2018	318-laptop	bpl	RC
22	beautiful	2	200	0.3	14	../stimuli/combined/switch-0.3_chunk-500_C_G_alternating_14.mp3	45	2.364	[(None, 0.0), (45, 1.837), (45, 2.364)]	13.178690822	281.730298185	4210.13653941	2949.64162505	2019_Feb_21_1629	Sound Switch 12-20-2018	318-laptop	bpl	RC
